time, gyroscope.X, gyroscope.Y, gyroscope.Z, accelerometer.X, accelerometer.Y, accelerometer.Z, magnetometer.X, magnetometer.Y, magnetometer.Z 
0,-0.9375,-1.25,0.875,0.019043,-0.052246,0.97803,0.20996,0.03125,-0.44873
0.0039062,-0.9375,-1.25,0.875,0.019043,-0.052246,0.97803,0.20996,0.03125,-0.44873
0.0078125,-0.9375,-1.875,0.25,0.019043,-0.067871,0.99756,0.20996,0.03125,-0.44873
0.011719,-1.3125,-2,0.125,0.026855,-0.032715,0.98975,0.21484,0.041016,-0.45361
0.015625,-1.75,-2.125,0,0.003418,-0.032715,0.99365,0.21484,0.041016,-0.45361
0.019531,-1.5625,-2.3125,-0.1875,0,-0.0092773,1.0205,0.21484,0.041016,-0.45361
0.023438,-1.25,-2.1875,-0.0625,-0.0039062,-0.028809,1.0205,0.21484,0.041016,-0.45361
0.027344,-1,-1.9375,-0.0625,0.01123,-0.032715,1.0015,0.21484,0.041016,-0.45361
0.03125,-0.8125,-1.6875,0.0625,-0.0078125,-0.044434,1.0093,0.21484,0.041016,-0.45361
0.035156,-0.625,-1.3125,0,0.015137,-0.032715,1.0015,0.21484,0.041016,-0.45361
0.039062,-0.875,-1.0625,0.375,0.0073242,-0.032715,0.98193,0.2124,0.038574,-0.43848
0.042969,-0.8125,-0.625,0.4375,0.003418,-0.024902,1.0054,0.2124,0.038574,-0.43848
0.046875,-1.1875,-0.625,0.625,-0.0039062,-0.056152,1.0127,0.2124,0.038574,-0.43848
0.050781,-1.4375,-0.6875,0.625,0.022949,-0.040527,1.0093,0.20508,0.03125,-0.43848
0.054688,-1.625,-1.0625,0.8125,0,-0.052246,0.98584,0.20508,0.03125,-0.43848
0.058594,-1.625,-1,0.6875,0.030762,-0.040527,0.99365,0.20508,0.03125,-0.43848
0.0625,-2,-0.875,0.625,0.019043,-0.060059,0.98975,0.20508,0.03125,-0.43848
0.066406,-2.6875,-1.1875,0.625,0.019043,-0.044434,1.0054,0.20996,0.038574,-0.44141
0.070312,-2.875,-1.3125,0.625,0.022949,-0.060059,1.0093,0.20996,0.038574,-0.44141
0.074219,-3.125,-1.375,0.875,0.0073242,-0.032715,1.0015,0.20996,0.038574,-0.44141
0.078125,-2.875,-1.9375,0.75,0.026855,-0.067871,1.0054,0.20215,0.025879,-0.44385
0.082031,-2.75,-2.375,0.5625,0.035156,-0.060059,0.97412,0.20215,0.025879,-0.44385
0.085938,-2.5,-2.75,0.75,0.022949,-0.044434,0.98584,0.20215,0.025879,-0.44385
0.089844,-2.25,-3.125,0.8125,0.01123,-0.052246,1.0054,0.20215,0.025879,-0.44385
0.09375,-2.125,-3,1.0625,-0.0039062,-0.052246,1.0015,0.20215,0.025879,-0.44385
0.097656,-2.0625,-2.5,1.1875,0.022949,-0.052246,1.0054,0.20215,0.025879,-0.44385
0.10156,-2.125,-2.3125,1.4375,0.003418,-0.052246,1.0015,0.20215,0.025879,-0.44385
0.10547,-2.125,-2,1.1875,0.019043,-0.04834,1.0015,0.21484,0.036133,-0.44629
0.10938,-2.125,-1.5625,0.75,0.01123,-0.036621,1.0054,0.21484,0.036133,-0.44629
0.11328,-1.625,-1.3125,0.3125,0.003418,-0.056152,0.98584,0.21484,0.036133,-0.44629
0.11719,-1.3125,-0.625,0.125,0.015137,-0.028809,0.97412,0.2124,0.03125,-0.43604
0.12109,-1.625,-0.5625,0.0625,0.019043,-0.040527,1.0015,0.2124,0.03125,-0.43604
0.125,-1.3125,-0.375,-0.375,-0.0078125,-0.044434,1.0015,0.2124,0.03125,-0.43604
0.12891,-1.5,0.125,-0.125,0.003418,-0.056152,0.99365,0.2124,0.03125,-0.43604
0.13281,-1.5625,0.25,-0.375,0.01123,-0.060059,0.99365,0.20215,0.020996,-0.44385
0.13672,-1.6875,0.3125,-0.3125,0.003418,-0.04834,1.0015,0.20215,0.020996,-0.44385
0.14062,-2,0.5625,-0.375,0,-0.063965,1.0166,0.20215,0.020996,-0.44385
0.14453,-2.25,0.625,0,0,-0.056152,0.98193,0.20508,0.038574,-0.44629
0.14844,-2.3125,1.125,0.4375,-0.0039062,-0.04834,1.0054,0.20508,0.038574,-0.44629
0.15234,-2,1,0.625,0.01123,-0.060059,0.98975,0.20508,0.038574,-0.44629
0.15625,-1.625,0.9375,0.75,0.01123,-0.052246,1.0015,0.21484,0.03125,-0.44141
0.16016,-1.25,0.75,0.75,0.030762,-0.056152,0.97803,0.21484,0.03125,-0.44141
0.16406,-1.125,0.0625,0.4375,0.022949,-0.052246,0.98193,0.21484,0.03125,-0.44141
0.16797,-1.25,-0.25,0.8125,0.019043,-0.036621,1.0015,0.21484,0.03125,-0.44141
0.17188,-1.3125,-1.125,0.8125,0.035156,-0.060059,0.99756,0.20215,0.025879,-0.44629
0.17578,-1.4375,-1.1875,0.75,0.015137,-0.056152,0.99365,0.20215,0.025879,-0.44629
0.17969,-1.75,-1.8125,0.8125,0.019043,-0.067871,0.98975,0.20215,0.025879,-0.44629
0.18359,-2,-2.125,0.875,0.022949,-0.036621,0.98193,0.20508,0.020996,-0.45117
0.1875,-2.125,-2.0625,0.8125,0.022949,-0.052246,1.0054,0.20508,0.020996,-0.45117
0.19141,-1.75,-1.8125,0.75,0.01123,-0.032715,1.0015,0.20508,0.020996,-0.45117
0.19531,-1.375,-1.6875,0.5625,0.019043,-0.063965,1.0127,0.20508,0.020996,-0.45117
0.19922,-0.8125,-1.75,0.0625,0.019043,-0.052246,0.98193,0.20508,0.020996,-0.45117
0.20312,-0.3125,-1.5625,0.125,0.003418,-0.032715,0.98975,0.20508,0.020996,-0.45117
0.20703,-0.3125,-1,0,0.019043,-0.032715,1.0015,0.20508,0.020996,-0.45117
0.21094,-0.0625,-0.6875,0.25,0.019043,-0.052246,1.0093,0.21777,0.038574,-0.44629
0.21484,0,-0.0625,0.125,0.01123,-0.056152,1.0205,0.21777,0.038574,-0.44629
0.21875,-0.75,0,0.0625,0.022949,-0.067871,0.98584,0.21777,0.038574,-0.44629
0.22266,-1.5,0.4375,-0.0625,0.019043,-0.060059,1.0127,0.2124,0.033691,-0.44873
0.22656,-1.75,0.375,-0.125,0.026855,-0.040527,1.0127,0.2124,0.033691,-0.44873
0.23047,-1.8125,0.3125,-0.5625,0.022949,-0.020996,1.0054,0.2124,0.033691,-0.44873
0.23438,-1.6875,0.5625,-0.375,0.026855,-0.060059,1.0015,0.2124,0.033691,-0.44873
0.23828,-2,0.25,-0.75,0.030762,-0.052246,0.99365,0.20508,0.043457,-0.43604
0.24219,-2.4375,0.125,-1,0.030762,-0.056152,1.0054,0.20508,0.043457,-0.43604
0.24609,-2.25,-0.1875,-1.375,0.01123,-0.056152,0.98584,0.20508,0.043457,-0.43604
0.25,-1.4375,-0.1875,-1.5,-0.012207,-0.063965,0.98975,0.20215,0.043457,-0.44873
0.25391,-1.3125,-0.6875,-1.6875,0.019043,-0.056152,0.97412,0.20215,0.043457,-0.44873
0.25781,-0.6875,-0.8125,-1.375,0.003418,-0.063965,1.0015,0.20215,0.043457,-0.44873
0.26172,-1.1875,-0.6875,-1.3125,0.01123,-0.071777,0.98193,0.20215,0.043457,-0.44873
0.26562,-1.4375,-0.375,-1.4375,0.019043,-0.052246,0.99756,0.20215,0.043457,-0.44873
0.26953,-1.3125,-0.1875,-1.625,0.015137,-0.063965,0.98584,0.20215,0.043457,-0.44873
0.27344,-0.8125,-0.0625,-1.75,0.01123,-0.044434,1.0015,0.20215,0.043457,-0.44873
0.27734,-0.4375,0.25,-1.8125,0,-0.028809,0.98975,0.20752,0.041016,-0.43848
0.28125,0,0.625,-1.75,0.019043,-0.01709,1.0166,0.20752,0.041016,-0.43848
0.28516,-0.375,1.1875,-1.5625,0.003418,-0.036621,1.0322,0.20752,0.041016,-0.43848
0.28906,-0.5,1.125,-1.5625,0.015137,-0.028809,1.0054,0.20508,0.043457,-0.44629
0.29297,-0.75,1.5,-1.125,0.003418,-0.036621,0.98193,0.20508,0.043457,-0.44629
0.29688,-1.125,1.3125,-0.6875,0.015137,-0.067871,1.0054,0.20508,0.043457,-0.44629
0.30078,-1.5625,1.1875,-0.1875,0.015137,-0.052246,1.0054,0.20508,0.043457,-0.44629
0.30469,-1.3125,0.75,0.125,0.0073242,-0.052246,1.0205,0.2124,0.03125,-0.44385
0.30859,-0.75,0.25,0.3125,0.01123,-0.04834,0.99756,0.2124,0.03125,-0.44385
0.3125,-0.3125,-0.1875,0.375,0.019043,-0.044434,1.0054,0.2124,0.03125,-0.44385
0.31641,-0.4375,-0.3125,0.75,-0.0039062,-0.067871,0.98975,0.21484,0.038574,-0.44629
0.32031,-0.625,-0.0625,1,0.019043,-0.056152,1.0054,0.21484,0.038574,-0.44629
0.32422,-0.25,0,1.4375,0.01123,-0.04834,0.98975,0.21484,0.038574,-0.44629
0.32812,-0.3125,0,1.9375,0.019043,-0.040527,0.99365,0.19238,0.033691,-0.44141
0.33203,-0.8125,0.0625,1.625,0.030762,-0.052246,1.0054,0.19238,0.033691,-0.44141
0.33594,-1.0625,0,1.375,0,-0.028809,0.98975,0.19238,0.033691,-0.44141
0.33984,-1.1875,-0.375,1.375,0.019043,-0.04834,1.0015,0.19238,0.033691,-0.44141
0.34375,-1.25,-0.625,0.9375,0.019043,-0.052246,1.0127,0.19971,0.04834,-0.44385
0.34766,-0.625,-0.9375,0.6875,0.01123,-0.044434,1.0015,0.19971,0.04834,-0.44385
0.35156,-0.25,-0.9375,0.5625,0.015137,-0.04834,0.98584,0.19971,0.04834,-0.44385
0.35547,-0.3125,-0.75,0.3125,0.01123,-0.040527,0.98584,0.20752,0.041016,-0.43848
0.35938,-0.5625,-0.25,0.0625,0.022949,-0.044434,0.98584,0.20752,0.041016,-0.43848
0.36328,-1,-0.0625,0.25,0.022949,-0.067871,1.0054,0.20752,0.041016,-0.43848
0.36719,-1.1875,0,0,0.019043,-0.04834,1.0015,0.20752,0.041016,-0.43848
0.37109,-0.8125,0.0625,-0.3125,0.019043,-0.052246,0.99365,0.20752,0.041016,-0.43848
0.375,-0.4375,0.3125,-0.5625,0.019043,-0.056152,0.98975,0.20752,0.041016,-0.43848
0.37891,-0.3125,0.375,-0.5,0.019043,-0.032715,0.99756,0.20752,0.041016,-0.43848
0.38281,-0.25,0.875,-0.625,0.019043,-0.04834,0.97803,0.2124,0.038574,-0.44629
0.38672,-0.3125,1.3125,-0.5625,-0.0039062,-0.036621,1.0015,0.2124,0.038574,-0.44629
0.39062,-0.75,1.25,-0.6875,-0.0039062,-0.052246,1.0166,0.2124,0.038574,-0.44629
0.39453,-0.75,1.25,-0.5625,0.015137,-0.056152,1.0054,0.20996,0.025879,-0.45117
0.39844,-0.875,1.8125,-0.25,0.003418,-0.056152,1.0166,0.20996,0.025879,-0.45117
0.40234,-1.375,2.1875,0,0,-0.040527,1.0054,0.20996,0.025879,-0.45117
0.40625,-1.25,2.5,-0.125,0.003418,-0.036621,0.98975,0.20996,0.025879,-0.45117
0.41016,-1.25,2.875,-0.1875,0.022949,-0.036621,1.0054,0.20215,0.038574,-0.44629
0.41406,-0.9375,3.1875,-0.125,0,-0.040527,1.0244,0.20215,0.038574,-0.44629
0.41797,-0.875,2.9375,-0.125,0.01123,-0.044434,0.99365,0.20215,0.038574,-0.44629
0.42188,-1.0625,3.1875,0,0.0073242,-0.056152,1.0093,0.2124,0.043457,-0.44629
0.42578,-0.875,3,0,-0.0039062,-0.036621,0.99365,0.2124,0.043457,-0.44629
0.42969,-1,3,0.5625,0.01123,-0.071777,1.0283,0.2124,0.043457,-0.44629
0.43359,-1.25,3,0.4375,0.01123,-0.063965,1.0093,0.2124,0.043457,-0.44629
0.4375,-0.875,3.125,0.875,0.022949,-0.056152,1.0093,0.2124,0.043457,-0.44629
0.44141,-0.5,2.875,0.9375,0.0073242,-0.04834,1.0015,0.2124,0.043457,-0.44629
0.44531,-0.0625,2.9375,1.125,0.022949,-0.071777,1.0054,0.2124,0.043457,-0.44629
0.44922,0.25,2.9375,1.1875,0.019043,-0.063965,0.98193,0.20752,0.038574,-0.45361
0.45312,-0.125,3.125,1.5,0.019043,-0.071777,0.98193,0.20752,0.038574,-0.45361
0.45703,-0.4375,3.125,1.4375,0.019043,-0.060059,1.0127,0.20752,0.038574,-0.45361
0.46094,-0.875,3.625,1.8125,0.015137,-0.052246,0.97803,0.20752,0.038574,-0.44873
0.46484,-0.4375,3.5625,1.9375,0.022949,-0.063965,0.97412,0.20752,0.038574,-0.44873
0.46875,-0.1875,4.125,1.8125,0.022949,-0.044434,1.0054,0.20752,0.038574,-0.44873
0.47266,0.1875,4.25,1.6875,0,-0.060059,1.0015,0.20752,0.038574,-0.44873
0.47656,-0.0625,4.375,1.5625,0.01123,-0.067871,1.0054,0.20996,0.033691,-0.44629
0.48047,-0.375,4.3125,1.875,0.01123,-0.071777,0.97803,0.20996,0.033691,-0.44629
0.48438,-0.9375,4.3125,2,0.026855,-0.063965,0.98584,0.20996,0.033691,-0.44629
0.48828,-1.4375,4.3125,1.75,0.015137,-0.052246,0.9707,0.2124,0.033691,-0.43848
0.49219,-1.3125,3.625,1.3125,0.003418,-0.060059,0.98193,0.2124,0.033691,-0.43848
0.49609,-1.1875,3.25,0.6875,0.019043,-0.060059,0.98975,0.2124,0.033691,-0.43848
0.5,-0.5625,2.6875,0.1875,0.022949,-0.052246,0.97412,0.20508,0.03125,-0.44141
0.50391,-0.625,2.25,-0.0625,0.0073242,-0.067871,1.0015,0.20508,0.03125,-0.44141
0.50781,-0.5625,2.25,-0.25,-0.0078125,-0.071777,1.0054,0.20508,0.03125,-0.44141
0.51172,-0.875,2.4375,-0.375,0.003418,-0.056152,1.0166,0.20508,0.03125,-0.44141
0.51562,-0.9375,2.875,-0.5,0.019043,-0.052246,1.0093,0.2124,0.038574,-0.45654
0.51953,-0.5625,2.9375,-0.3125,0.019043,-0.052246,1.0205,0.2124,0.038574,-0.45654
0.52344,-0.5,3.25,-0.3125,0.019043,-0.060059,1.0054,0.2124,0.038574,-0.45654
0.52734,-0.25,3.4375,-0.4375,0.0073242,-0.060059,1.0205,0.20752,0.041016,-0.44629
0.53125,-0.125,3.9375,-0.25,-0.031738,-0.056152,0.98584,0.20752,0.041016,-0.44629
0.53516,-0.5,4,-0.125,-0.0078125,-0.083496,1.0093,0.20752,0.041016,-0.44629
0.53906,-0.9375,3.8125,-0.375,0,-0.04834,1.0205,0.20752,0.041016,-0.44629
0.54297,-1,4,-0.375,0.0073242,-0.036621,0.99756,0.20752,0.041016,-0.44629
0.54688,-0.9375,3.875,0,0,-0.067871,1.0093,0.20752,0.041016,-0.44629
0.55078,-1.1875,3.9375,0,0.019043,-0.052246,1.0015,0.20752,0.041016,-0.44629
0.55469,-1.5,4.375,0.375,0.01123,-0.067871,1.0127,0.20752,0.028809,-0.44385
0.55859,-1.5625,4,0.875,0.019043,-0.052246,1.0093,0.20752,0.028809,-0.44385
0.5625,-1.5625,4.0625,1,0.0073242,-0.067871,1.0093,0.20752,0.028809,-0.44385
0.56641,-1.5625,3.625,1.0625,0,-0.052246,0.97803,0.21484,0.036133,-0.44629
0.57031,-1.625,3.0625,1.5625,0.0073242,-0.060059,0.98193,0.21484,0.036133,-0.44629
0.57422,-1.625,2.8125,1.4375,0.015137,-0.040527,0.98975,0.21484,0.036133,-0.44629
0.57812,-1.875,2.8125,1.5625,0.019043,-0.060059,0.99365,0.21484,0.036133,-0.44629
0.58203,-1.1875,2.3125,1.5,0.0073242,-0.044434,0.98975,0.21777,0.036133,-0.44141
0.58594,-0.5625,2.0625,1.25,-0.0078125,-0.044434,1.0054,0.21777,0.036133,-0.44141
0.58984,0,2,1.1875,-0.012207,-0.044434,1.0054,0.21777,0.036133,-0.44141
0.59375,0.375,2.0625,0.9375,0.003418,-0.060059,0.98584,0.21484,0.041016,-0.44141
0.59766,0.25,2.1875,1,-0.016113,-0.063965,1.0054,0.21484,0.041016,-0.44141
0.60156,-0.1875,2.5,0.6875,0.003418,-0.04834,1.0015,0.21484,0.041016,-0.44141
0.60547,0,2.6875,0.0625,0.0073242,-0.052246,0.98584,0.21484,0.041016,-0.44141
0.60938,0,3.1875,0,0.019043,-0.056152,0.98975,0.21484,0.041016,-0.44141
0.61328,0.1875,3.5,-0.4375,0,-0.044434,1.0093,0.21484,0.041016,-0.44141
0.61719,0.125,3.4375,-0.5625,0.01123,-0.04834,1.0127,0.21484,0.041016,-0.44141
0.62109,0.3125,3.875,-0.4375,0.019043,-0.063965,1.0093,0.2124,0.041016,-0.44629
0.625,0.3125,4.0625,-0.75,0.019043,-0.04834,1.0054,0.2124,0.041016,-0.44629
0.62891,0.5625,4.1875,-0.8125,0.003418,-0.060059,0.98584,0.2124,0.041016,-0.44629
0.63281,1,4.25,-1.1875,0.015137,-0.040527,0.99365,0.22266,0.033691,-0.44385
0.63672,1,4.5625,-1.25,0.026855,-0.024902,1.0205,0.22266,0.033691,-0.44385
0.64062,1.625,4.5,-1.5,0,-0.04834,1.0015,0.22266,0.033691,-0.44385
0.64453,1.9375,4.5625,-1.1875,0.0073242,-0.056152,1.0166,0.22266,0.033691,-0.44385
0.64844,1.625,5,-1,0.019043,-0.063965,1.0093,0.2124,0.041016,-0.44385
0.65234,1.5625,5.3125,-1.1875,0.019043,-0.04834,1.0054,0.2124,0.041016,-0.44385
0.65625,1.625,5.5625,-1.125,-0.016113,-0.040527,0.98975,0.2124,0.041016,-0.44385
0.66016,1.5625,5.75,-0.8125,0,-0.040527,1.0205,0.21777,0.041016,-0.44629
0.66406,1.4375,5.75,-0.8125,-0.02002,-0.036621,1.0127,0.21777,0.041016,-0.44629
0.66797,1.125,6.125,-0.625,0.003418,-0.052246,1.0127,0.21777,0.041016,-0.44629
0.67188,1.25,6.125,-0.6875,-0.0078125,-0.056152,0.97412,0.2124,0.038574,-0.44629
0.67578,0.5625,6.5,-0.1875,0.003418,-0.075684,1.0093,0.2124,0.038574,-0.44629
0.67969,-0.0625,6.8125,-0.4375,0.003418,-0.060059,1.0015,0.2124,0.038574,-0.44629
0.68359,-0.5625,8.3125,-0.875,-0.0039062,-0.067871,1.0054,0.2124,0.038574,-0.44629
0.6875,-1,7.5625,0.0625,0,-0.040527,1.0127,0.21777,0.043457,-0.44141
0.69141,-0.6875,7.6875,0.25,-0.016113,-0.060059,1.0015,0.21777,0.043457,-0.44141
0.69531,0.5,7.0625,0,-0.0039062,-0.044434,0.98193,0.21777,0.043457,-0.44141
0.69922,1.5625,6.125,0.1875,0.003418,-0.060059,0.97803,0.22021,0.033691,-0.44629
0.70312,1.75,5.375,0,-0.012207,-0.044434,1.0093,0.22021,0.033691,-0.44629
0.70703,1.6875,4.875,0,0.003418,-0.044434,0.98193,0.22021,0.033691,-0.44629
0.71094,1.4375,4.875,0,-0.016113,-0.056152,0.98975,0.22021,0.033691,-0.44629
0.71484,1.75,4.5625,-0.25,-0.016113,-0.067871,0.97803,0.22021,0.033691,-0.44629
0.71875,2.125,4.3125,-0.5,-0.0039062,-0.067871,0.99365,0.22021,0.033691,-0.44629
0.72266,2.375,3.9375,-0.3125,-0.012207,-0.056152,0.98193,0.22021,0.033691,-0.44629
0.72656,2.375,4,-0.0625,-0.012207,-0.063965,0.97412,0.21777,0.033691,-0.44385
0.73047,2.125,4.0625,0,-0.012207,-0.052246,0.99365,0.21777,0.033691,-0.44385
0.73438,2.125,4,-0.25,-0.023926,-0.071777,1.0166,0.21777,0.033691,-0.44385
0.73828,2.125,3.875,-0.0625,-0.031738,-0.032715,1.0015,0.2124,0.028809,-0.43604
0.74219,1.9375,3.8125,-0.125,-0.016113,-0.060059,1.0015,0.2124,0.028809,-0.43604
0.74609,2.3125,3.8125,0.1875,-0.016113,-0.071777,1.0015,0.2124,0.028809,-0.43604
0.75,2.4375,4.0625,0.625,-0.012207,-0.052246,0.98584,0.2124,0.028809,-0.43604
0.75391,1.75,3.9375,0.625,0.01123,-0.060059,0.98584,0.21484,0.041016,-0.44141
0.75781,1.125,3.8125,0.4375,0.019043,-0.075684,0.99365,0.21484,0.041016,-0.44141
0.76172,0.9375,3.5625,0.5625,0.003418,-0.075684,0.97803,0.21484,0.041016,-0.44141
0.76562,0.0625,2.5625,0.75,-0.0039062,-0.044434,1.0093,0.2124,0.033691,-0.44141
0.76953,-0.0625,1.6875,0.625,0.019043,-0.060059,0.99365,0.2124,0.033691,-0.44141
0.77344,-0.0625,0.75,0.3125,0,-0.044434,1.0015,0.2124,0.033691,-0.44141
0.77734,0.8125,0.0625,0.25,-0.016113,-0.060059,0.98584,0.2124,0.033691,-0.44141
0.78125,1.25,-0.125,0,-0.023926,-0.044434,1.0166,0.2124,0.033691,-0.44141
0.78516,1.5625,-0.4375,-0.125,-0.027832,-0.04834,1.0054,0.2124,0.033691,-0.44141
0.78906,2.3125,-1,-0.125,-0.02002,-0.032715,0.98975,0.2124,0.033691,-0.44141
0.79297,2.875,-0.9375,-0.5,-0.0078125,-0.024902,0.98193,0.21484,0.033691,-0.44141
0.79688,3.375,-1.1875,-0.8125,0,-0.032715,0.98584,0.21484,0.033691,-0.44141
0.80078,3.5625,-1,-0.625,0.003418,-0.052246,1.0127,0.21484,0.033691,-0.44141
0.80469,2.75,-0.375,-0.625,-0.027832,-0.052246,0.97803,0.21484,0.038574,-0.43359
0.80859,2.3125,-0.1875,-0.5,0.003418,-0.044434,1.0093,0.21484,0.038574,-0.43359
0.8125,2.4375,-0.25,-0.5,-0.02002,-0.056152,1.0015,0.21484,0.038574,-0.43359
0.81641,2.25,-0.125,-0.5,-0.027832,-0.040527,0.98584,0.21484,0.038574,-0.43359
0.82031,1.5625,-0.4375,-0.1875,-0.0039062,-0.04834,0.97412,0.21484,0.036133,-0.43848
0.82422,1.3125,-0.1875,-0.125,-0.012207,-0.056152,1.0015,0.21484,0.036133,-0.43848
0.82812,0.9375,-0.5,0.125,-0.0039062,-0.056152,0.97803,0.21484,0.036133,-0.43848
0.83203,1.25,-0.9375,0.0625,-0.012207,-0.04834,0.98584,0.21484,0.033691,-0.44629
0.83594,1.5625,-1.25,0.4375,-0.031738,-0.056152,1.0093,0.21484,0.033691,-0.44629
0.83984,1.4375,-1.125,0.375,-0.0039062,-0.056152,0.97803,0.21484,0.033691,-0.44629
0.84375,1.3125,-1.25,0.1875,-0.012207,-0.056152,0.99365,0.2124,0.023438,-0.44385
0.84766,1.75,-1,0.0625,-0.012207,-0.040527,1.0166,0.2124,0.023438,-0.44385
0.85156,1.625,-0.875,0.25,-0.027832,-0.052246,0.98193,0.2124,0.023438,-0.44385
0.85547,1.75,-0.5,0.1875,-0.023926,-0.063965,0.98584,0.2124,0.023438,-0.44385
0.85938,1.9375,-0.5,0.1875,-0.0078125,-0.04834,0.98584,0.22266,0.025879,-0.45898
0.86328,1.375,-0.1875,0.3125,-0.0078125,-0.060059,1.0166,0.22266,0.025879,-0.45898
0.86719,1.1875,-0.4375,0.125,-0.023926,-0.052246,1.0015,0.22266,0.025879,-0.45898
0.87109,1.25,-0.875,0.1875,0.01123,-0.056152,0.99365,0.22021,0.033691,-0.44141
0.875,0.375,-0.8125,-0.125,-0.016113,-0.040527,1.0015,0.22021,0.033691,-0.44141
0.87891,0.1875,-0.6875,-0.125,-0.016113,-0.071777,0.99365,0.22021,0.033691,-0.44141
0.88281,0.25,-1.0625,-0.0625,-0.016113,-0.036621,1.0054,0.22021,0.033691,-0.44141
0.88672,0.375,-1.0625,-0.3125,-0.012207,-0.044434,1.0015,0.22021,0.033691,-0.44141
0.89062,0.0625,-1.3125,0,-0.012207,-0.044434,0.98975,0.22021,0.033691,-0.44141
0.89453,0.1875,-1.375,-0.3125,-0.0039062,-0.044434,1.0093,0.22021,0.033691,-0.44141
0.89844,0.5,-1.625,-0.375,0,-0.052246,1.0093,0.22266,0.036133,-0.44141
0.90234,0.5,-1.5625,-0.6875,0,-0.04834,1.0093,0.22266,0.036133,-0.44141
0.90625,0.6875,-1.875,-0.875,-0.012207,-0.040527,0.98584,0.22266,0.036133,-0.44141
0.91016,0.625,-2.0625,-0.875,-0.023926,-0.052246,0.98975,0.22266,0.033691,-0.44873
0.91406,1.5625,-2.0625,-1.0625,-0.02002,-0.036621,1.0093,0.22266,0.033691,-0.44873
0.91797,1.8125,-1.9375,-1.1875,-0.0039062,-0.056152,0.98193,0.22266,0.033691,-0.44873
0.92188,2.5,-1.8125,-1.1875,-0.02002,-0.060059,1.0127,0.22266,0.033691,-0.44873
0.92578,2.6875,-1.3125,-1.4375,-0.031738,-0.052246,0.99365,0.21484,0.033691,-0.44141
0.92969,2.875,-0.8125,-1.3125,-0.0078125,-0.044434,0.98584,0.21484,0.033691,-0.44141
0.93359,2.6875,-0.5625,-1.3125,0.0073242,-0.036621,1.0093,0.21484,0.033691,-0.44141
0.9375,2.9375,0,-1,-0.023926,-0.036621,1.0054,0.20996,0.043457,-0.44629
0.94141,3.125,0.375,-1.125,-0.031738,-0.052246,1.0054,0.20996,0.043457,-0.44629
0.94531,2.6875,0.5625,-1,-0.0039062,-0.060059,1.0054,0.20996,0.043457,-0.44629
0.94922,2.125,0.8125,-0.9375,0.003418,-0.04834,1.0093,0.20996,0.043457,-0.44629
0.95312,1.8125,1.1875,-1,-0.02002,-0.040527,0.99365,0.20996,0.043457,-0.44629
0.95703,1.5,1.6875,-0.75,0,-0.063965,1.0015,0.20996,0.043457,-0.44629
0.96094,1.5625,2.1875,-0.875,-0.023926,-0.052246,1.0093,0.20996,0.043457,-0.44629
0.96484,1.375,2,-0.75,-0.031738,-0.063965,0.98584,0.21484,0.033691,-0.44385
0.96875,1.1875,2,-0.625,-0.012207,-0.063965,1.0054,0.21484,0.033691,-0.44385
0.97266,0.8125,2.1875,-0.5,0.019043,-0.044434,0.98975,0.21484,0.033691,-0.44385
0.97656,0.75,1.5625,-0.875,0.0073242,-0.036621,1.0015,0.22021,0.025879,-0.43604
0.98047,0.9375,0.875,-1.125,-0.0039062,-0.040527,0.98584,0.22021,0.025879,-0.43604
0.98438,1.5,0.3125,-1.4375,-0.016113,-0.032715,1.0054,0.22021,0.025879,-0.43604
0.98828,1.4375,-0.3125,-1.875,-0.0078125,-0.040527,0.97412,0.22021,0.025879,-0.43604
0.99219,1.25,-0.5625,-2,0.019043,-0.040527,0.97412,0.22754,0.03125,-0.43604
0.99609,0.8125,-0.8125,-1.75,0,-0.036621,0.9707,0.22754,0.03125,-0.43604
1,0.3125,-1.0625,-1.6875,-0.0039062,-0.044434,1.0093,0.22754,0.03125,-0.43604
1.0039,0.0625,-1.375,-1.8125,-0.02002,-0.020996,0.99756,0.21484,0.03125,-0.44385
1.0078,0.1875,-1.25,-1.6875,0,-0.04834,0.98975,0.21484,0.03125,-0.44385
1.0117,-0.375,-1.0625,-1.25,-0.02002,-0.040527,1.0093,0.21484,0.03125,-0.44385
1.0156,-0.5625,-0.875,-1.3125,-0.012207,-0.044434,0.97412,0.21484,0.038574,-0.43604
1.0195,-1.0625,-1.25,-1.5625,-0.016113,-0.04834,1.0093,0.21484,0.038574,-0.43604
1.0234,-0.6875,-1.6875,-1.25,0,-0.056152,1.0015,0.21484,0.038574,-0.43604
1.0273,-0.1875,-1.375,-0.9375,0,-0.075684,1.0015,0.21484,0.038574,-0.43604
1.0312,0.1875,-1.3125,-0.3125,-0.012207,-0.056152,1.0166,0.22754,0.033691,-0.43359
1.0352,0.4375,-0.5625,-0.125,-0.016113,-0.052246,0.98584,0.22754,0.033691,-0.43359
1.0391,0.5,-0.0625,-0.3125,-0.02002,-0.044434,0.98193,0.22754,0.033691,-0.43359
1.043,0.75,0.0625,-0.1875,-0.012207,-0.063965,1.0244,0.20996,0.043457,-0.43848
1.0469,1,0.3125,-0.125,0,-0.052246,0.98584,0.20996,0.043457,-0.43848
1.0508,1,0.75,0.125,-0.016113,-0.036621,1.0054,0.20996,0.043457,-0.43848
1.0547,0.75,0.625,0,-0.0039062,-0.044434,0.98584,0.20996,0.043457,-0.43848
1.0586,0.8125,0.875,-0.1875,-0.016113,-0.044434,1.0015,0.20996,0.043457,-0.43848
1.0625,0.9375,0.5,-0.5,0.0073242,-0.040527,0.99365,0.20996,0.043457,-0.43848
1.0664,1.3125,0.4375,-0.75,-0.012207,-0.036621,1.0166,0.20996,0.043457,-0.43848
1.0703,1.75,-0.25,-1.1875,0.003418,-0.044434,0.98584,0.21777,0.028809,-0.44873
1.0742,1.625,-0.75,-1.375,0.003418,-0.056152,0.9668,0.21777,0.028809,-0.44873
1.0781,1.25,-1.125,-1.5625,-0.0039062,-0.04834,1.0093,0.21777,0.028809,-0.44873
1.082,1.125,-1.5625,-1.8125,-0.0078125,-0.036621,0.98193,0.22266,0.025879,-0.44385
1.0859,1.125,-2.125,-1.9375,-0.016113,-0.056152,1.0015,0.22266,0.025879,-0.44385
1.0898,1.3125,-2.1875,-1.8125,-0.0039062,-0.056152,1.0054,0.22266,0.025879,-0.44385
1.0938,1.1875,-1.875,-1.5,-0.016113,-0.052246,1.0054,0.22266,0.025879,-0.44385
1.0977,0.875,-1.5,-1.6875,0,-0.04834,1.0015,0.21484,0.020996,-0.43848
1.1016,0.625,-1.25,-1.25,-0.0078125,-0.067871,0.98975,0.21484,0.020996,-0.43848
1.1055,0.5,-0.8125,-0.9375,-0.016113,-0.040527,1.0166,0.21484,0.020996,-0.43848
1.1094,0.75,-0.6875,-0.5625,-0.016113,-0.067871,1.0127,0.22266,0.036133,-0.44629
1.1133,0.9375,-0.9375,-0.3125,-0.0078125,-0.044434,0.98975,0.22266,0.036133,-0.44629
1.1172,1.1875,-0.875,0.0625,0,-0.052246,1.0054,0.22266,0.036133,-0.44629
1.1211,1,-0.5625,0.4375,-0.023926,-0.04834,1.0015,0.22266,0.036133,-0.44629
1.125,1,-0.4375,0.5625,-0.012207,-0.036621,0.98584,0.22266,0.036133,-0.44629
1.1289,0.9375,-0.375,0.75,-0.0039062,-0.056152,0.98193,0.22266,0.036133,-0.44629
1.1328,1.25,-0.5625,0.875,0,-0.044434,0.98584,0.22266,0.036133,-0.44629
1.1367,1.5625,-0.75,0.9375,0.003418,-0.036621,0.98975,0.22266,0.018555,-0.43848
1.1406,1.75,-0.625,0.875,0,-0.052246,0.95117,0.22266,0.018555,-0.43848
1.1445,1.375,-0.5,1,-0.016113,-0.060059,1.0166,0.22266,0.018555,-0.43848
1.1484,1.1875,-0.4375,1.0625,-0.0078125,-0.04834,1.0054,0.22021,0.033691,-0.44141
1.1523,1.4375,-0.8125,1,0.01123,-0.044434,1.0205,0.22021,0.033691,-0.44141
1.1562,0.8125,-0.875,1.0625,-0.012207,-0.04834,0.97412,0.22021,0.033691,-0.44141
1.1602,0.375,-1.0625,0.8125,0.01123,-0.040527,1.0093,0.22021,0.033691,-0.44141
1.1641,0.4375,-1.1875,0.3125,-0.0039062,-0.01709,1.0166,0.22266,0.036133,-0.44385
1.168,0.625,-1.4375,-0.0625,-0.016113,-0.020996,1.0127,0.22266,0.036133,-0.44385
1.1719,1.375,-1.5625,-0.375,-0.0039062,-0.024902,0.99365,0.22266,0.036133,-0.44385
1.1758,1.5,-1.5625,-0.375,-0.016113,-0.040527,1.0015,0.21484,0.038574,-0.43848
1.1797,1.125,-1.5625,-0.375,0.003418,-0.024902,1.0015,0.21484,0.038574,-0.43848
1.1836,0.6875,-1.3125,-0.5,0,-0.01709,0.98975,0.21484,0.038574,-0.43848
1.1875,0.3125,-1.125,-0.5625,-0.016113,-0.032715,0.99365,0.2124,0.036133,-0.43848
1.1914,0.1875,-0.8125,-0.5625,0,-0.036621,1.0054,0.2124,0.036133,-0.43848
1.1953,0.0625,-0.8125,-0.5,-0.0078125,-0.052246,1.0015,0.2124,0.036133,-0.43848
1.1992,0.0625,-0.4375,-0.6875,0.003418,-0.056152,1.0093,0.2124,0.036133,-0.43848
1.2031,0.5,0,-0.6875,-0.02002,-0.028809,1.0093,0.2251,0.033691,-0.43848
1.207,0.5625,0.125,-0.6875,-0.012207,-0.036621,1.0054,0.2251,0.033691,-0.43848
1.2109,0.5,0.3125,-0.4375,-0.016113,-0.040527,1.0166,0.2251,0.033691,-0.43848
1.2148,0.125,0.3125,-0.625,0.003418,-0.036621,0.98584,0.21484,0.038574,-0.43604
1.2188,0.125,0.5,-0.5,0,-0.028809,1.0015,0.21484,0.038574,-0.43604
1.2227,0,0.4375,-0.25,-0.016113,-0.052246,1.0093,0.21484,0.038574,-0.43604
1.2266,-0.3125,0.0625,-0.8125,0,-0.052246,1.0015,0.21484,0.038574,-0.43604
1.2305,-0.25,-0.0625,-0.4375,-0.012207,-0.040527,1.0015,0.21484,0.038574,-0.43604
1.2344,-0.5625,-0.4375,-0.5,0.0073242,-0.052246,0.98584,0.21484,0.038574,-0.43604
1.2383,-0.5625,-1,-0.5625,0.003418,-0.024902,1.0015,0.21484,0.038574,-0.43604
1.2422,-0.75,-0.875,-0.5625,-0.02002,-0.032715,1.0015,0.22021,0.038574,-0.44629
1.2461,-0.625,-1.125,-0.1875,-0.012207,-0.040527,1.0015,0.22021,0.038574,-0.44629
1.25,-0.25,-1.0625,-0.0625,0.0073242,-0.028809,1.0166,0.22021,0.038574,-0.44629
1.2539,-0.3125,-1.125,0.25,-0.012207,-0.036621,1.0127,0.2124,0.023438,-0.44873
1.2578,0,-1.125,0.375,-0.012207,-0.032715,1.0015,0.2124,0.023438,-0.44873
1.2617,0.5,-1.3125,0.6875,0,-0.040527,1.0127,0.2124,0.023438,-0.44873
1.2656,0.3125,-1.4375,0.5,0.0073242,-0.036621,1.0361,0.2124,0.023438,-0.44873
1.2695,0.125,-1.4375,0.5,-0.016113,-0.044434,1.0054,0.20996,0.03125,-0.44629
1.2734,0.4375,-1,0.375,-0.0078125,-0.036621,1.0054,0.20996,0.03125,-0.44629
1.2773,0.6875,-0.75,0.75,0.003418,-0.028809,1.0283,0.20996,0.03125,-0.44629
1.2812,0.8125,-0.5,1.125,-0.0078125,-0.040527,0.98975,0.21777,0.033691,-0.43848
1.2852,0.375,-0.625,1.125,0.01123,-0.044434,1.0127,0.21777,0.033691,-0.43848
1.2891,0.125,-0.75,1.3125,0,-0.044434,1.0054,0.21777,0.033691,-0.43848
1.293,0.0625,-0.9375,1.1875,-0.016113,-0.032715,1.0093,0.21777,0.033691,-0.43848
1.2969,0,-0.625,1.25,0.003418,-0.056152,1.0093,0.21777,0.033691,-0.43848
1.3008,-0.0625,-0.6875,1.375,-0.023926,-0.060059,1.0127,0.21777,0.033691,-0.43848
1.3047,0,-0.25,1.5,-0.0039062,-0.04834,1.0015,0.21777,0.033691,-0.43848
1.3086,0,-0.4375,1.875,-0.012207,-0.032715,1.0015,0.20996,0.020996,-0.44873
1.3125,0.125,0,2,0.01123,-0.044434,1.0015,0.20996,0.020996,-0.44873
1.3164,0.125,0,1.5,-0.0039062,-0.036621,0.99365,0.20996,0.020996,-0.44873
1.3203,0.25,0,1.4375,0.003418,-0.036621,0.98975,0.2124,0.020996,-0.44385
1.3242,0.375,-0.125,0.875,0,-0.044434,1.0054,0.2124,0.020996,-0.44385
1.3281,0.3125,0.1875,0.6875,0.01123,-0.036621,0.98584,0.2124,0.020996,-0.44385
1.332,0.3125,0.0625,0.25,-0.0039062,-0.032715,1.0015,0.2124,0.020996,-0.44385
1.3359,-0.125,0.375,0,-0.0078125,-0.044434,1.0015,0.20996,0.043457,-0.44629
1.3398,0,0.5,-0.375,-0.027832,-0.04834,1.0093,0.20996,0.043457,-0.44629
1.3438,0,0.875,-0.5625,0.015137,-0.067871,1.0054,0.20996,0.043457,-0.44629
1.3477,-0.25,1.3125,-0.875,-0.02002,-0.052246,0.98193,0.20752,0.028809,-0.44385
1.3516,-0.3125,1.4375,-0.875,0.0073242,-0.032715,1.0127,0.20752,0.028809,-0.44385
1.3555,-0.125,1.5,-1.25,0.003418,-0.056152,1.0127,0.20752,0.028809,-0.44385
1.3594,-0.125,1.5,-1.4375,0.01123,-0.036621,1.0015,0.21777,0.041016,-0.44629
1.3633,-0.0625,1.6875,-1.3125,0.003418,-0.04834,0.99365,0.21777,0.041016,-0.44629
1.3672,-0.25,1.375,-1.1875,-0.0039062,-0.052246,0.99756,0.21777,0.041016,-0.44629
1.3711,0,1.5,-1.125,0.003418,-0.052246,1.0322,0.21777,0.041016,-0.44629
1.375,0,1.4375,-0.875,0,-0.024902,1.0015,0.22266,0.043457,-0.44141
1.3789,-0.1875,1,-1.0625,-0.0078125,-0.052246,0.98975,0.22266,0.043457,-0.44141
1.3828,-0.125,0.5625,-0.5625,-0.0039062,-0.044434,0.99365,0.22266,0.043457,-0.44141
1.3867,-0.1875,0.5,-0.5,-0.0039062,-0.036621,1.0015,0.21777,0.028809,-0.42871
1.3906,-0.5,0.6875,-0.3125,-0.0078125,-0.056152,1.0015,0.21777,0.028809,-0.42871
1.3945,-0.4375,0.3125,0,0.019043,-0.060059,0.98193,0.21777,0.028809,-0.42871
1.3984,-0.5625,0.3125,0.1875,0,-0.067871,0.9707,0.21777,0.028809,-0.42871
1.4023,-0.625,0,0.375,-0.0039062,-0.040527,1.0054,0.21777,0.028809,-0.42871
1.4062,-0.375,0.0625,0.4375,0,-0.028809,0.98193,0.21777,0.028809,-0.42871
1.4102,-0.25,-0.0625,0.3125,0.003418,-0.036621,0.98193,0.21777,0.028809,-0.42871
1.4141,0.0625,-0.0625,0.6875,0.019043,-0.052246,1.0166,0.21484,0.03125,-0.44141
1.418,0.4375,-0.375,0.3125,-0.02002,-0.024902,1.0015,0.21484,0.03125,-0.44141
1.4219,0.1875,0,0.125,0,-0.036621,1.0015,0.21484,0.03125,-0.44141
1.4258,0.5,0.375,0,-0.0078125,-0.032715,0.97803,0.22021,0.03125,-0.44629
1.4297,0.25,0.75,-0.1875,-0.0078125,-0.036621,1.0093,0.22021,0.03125,-0.44629
1.4336,0.375,1.125,0,-0.0078125,-0.024902,1.0054,0.22021,0.03125,-0.44629
1.4375,0,1.375,0.1875,-0.0078125,-0.063965,0.99365,0.22021,0.03125,-0.44629
1.4414,-0.25,1.3125,-0.125,-0.016113,-0.040527,1.0093,0.2124,0.03125,-0.44385
1.4453,-0.5625,1.3125,-0.0625,-0.016113,-0.052246,1.0015,0.2124,0.03125,-0.44385
1.4492,-0.4375,1.125,-0.0625,-0.016113,-0.040527,0.99756,0.2124,0.03125,-0.44385
1.4531,-0.25,0.625,-0.3125,-0.012207,-0.032715,0.98584,0.2124,0.03125,-0.44629
1.457,0,0.4375,-0.625,0,-0.024902,1.0015,0.2124,0.03125,-0.44629
1.4609,0.1875,-0.0625,-0.6875,-0.0039062,-0.052246,1.0093,0.2124,0.03125,-0.44629
1.4648,0.4375,0,-0.875,-0.0039062,-0.036621,0.99365,0.2124,0.03125,-0.44629
1.4688,0.1875,0.3125,-0.5625,-0.02002,-0.052246,1.0015,0.2124,0.03125,-0.44629
1.4727,-0.1875,0.8125,0,-0.023926,-0.056152,1.0015,0.2124,0.03125,-0.44629
1.4766,0,0.9375,0,-0.016113,-0.060059,0.98975,0.2124,0.03125,-0.44629
1.4805,0.3125,1.1875,0.3125,-0.02002,-0.032715,1.0093,0.22266,0.028809,-0.44629
1.4844,0.3125,1.125,0,-0.02002,-0.032715,1.0054,0.22266,0.028809,-0.44629
1.4883,0.8125,0.5,-0.1875,0.003418,-0.036621,0.98193,0.22266,0.028809,-0.44629
1.4922,1.0625,0.625,-0.0625,-0.016113,-0.040527,1.0166,0.2251,0.03125,-0.44629
1.4961,0.875,0.625,-0.3125,0.003418,-0.024902,1.0093,0.2251,0.03125,-0.44629
1.5,1.1875,0.6875,-0.375,-0.016113,-0.024902,1.0166,0.2251,0.03125,-0.44629
1.5039,1.25,0.5,-0.6875,-0.016113,-0.032715,1.0166,0.2251,0.03125,-0.44629
1.5078,1.3125,0.625,-1,0.003418,-0.01709,1.0166,0.20996,0.038574,-0.44629
1.5117,1.4375,0.375,-0.875,-0.0078125,-0.032715,1.0166,0.20996,0.038574,-0.44629
1.5156,1.6875,0.1875,-0.875,-0.02002,-0.028809,0.97803,0.20996,0.038574,-0.44629
1.5195,1.5625,0.125,-0.75,-0.016113,-0.052246,1.0093,0.20996,0.038574,-0.43848
1.5234,1.25,-0.3125,-0.75,-0.012207,-0.032715,0.99756,0.20996,0.038574,-0.43848
1.5273,1.25,-0.3125,-0.375,-0.016113,-0.036621,0.99756,0.20996,0.038574,-0.43848
1.5312,1.25,-0.25,-0.0625,0.003418,-0.063965,0.98193,0.22266,0.033691,-0.44385
1.5352,1.1875,-0.4375,0.0625,-0.0078125,-0.044434,0.98193,0.22266,0.033691,-0.44385
1.5391,1.3125,-0.25,0.1875,0.0073242,-0.032715,0.99365,0.22266,0.033691,-0.44385
1.543,1.375,-0.5625,0.5625,-0.012207,-0.032715,1.0015,0.22266,0.033691,-0.44385
1.5469,0.9375,-0.75,0.3125,-0.0039062,-0.020996,1.0166,0.20752,0.025879,-0.43848
1.5508,1.1875,-0.9375,0.375,0.003418,-0.028809,1.0093,0.20752,0.025879,-0.43848
1.5547,1.125,-1.25,0.4375,0.003418,-0.028809,1.0054,0.20752,0.025879,-0.43848
1.5586,1,-1.375,0.5,0.0073242,-0.052246,0.98975,0.2251,0.033691,-0.43115
1.5625,0.9375,-2.125,0.1875,0.019043,-0.036621,1.0054,0.2251,0.033691,-0.43115
1.5664,0.6875,-2.75,0.5,0.019043,-0.044434,0.98193,0.2251,0.033691,-0.43115
1.5703,0.3125,-3,0.3125,-0.0078125,-0.056152,0.98975,0.2251,0.033691,-0.43115
1.5742,-0.0625,-2.875,0.8125,-0.016113,-0.052246,0.98975,0.2251,0.033691,-0.43115
1.5781,-0.1875,-3.125,0.625,0.003418,-0.040527,1.0205,0.2251,0.033691,-0.43115
1.582,0.5625,-2.4375,0.0625,-0.023926,-0.013184,1.0054,0.2251,0.033691,-0.43115
1.5859,0.3125,-1.8125,0.5,-0.012207,-0.04834,1.0205,0.20996,0.023438,-0.44385
1.5898,-0.5625,-0.875,1.5,-0.0078125,-0.056152,1.0166,0.20996,0.023438,-0.44385
1.5938,-0.625,-0.6875,2.4375,0.019043,-0.056152,1.0093,0.20996,0.023438,-0.44385
1.5977,-0.25,-0.8125,2.5,-0.027832,-0.052246,1.0015,0.21484,0.025879,-0.43848
1.6016,0.4375,-0.6875,2.8125,-0.0039062,-0.028809,1.0205,0.21484,0.025879,-0.43848
1.6055,0.25,-0.375,2.625,-0.02002,-0.052246,1.0166,0.21484,0.025879,-0.43848
1.6094,-0.125,-0.125,2.625,-0.02002,-0.04834,0.98975,0.21484,0.025879,-0.43848
1.6133,-0.1875,-0.1875,2.75,-0.0039062,-0.040527,1.0015,0.22021,0.025879,-0.44385
1.6172,-0.25,-0.5,2.625,0.01123,-0.032715,1.0054,0.22021,0.025879,-0.44385
1.6211,-0.375,-0.8125,2.6875,0,-0.056152,0.98584,0.22021,0.025879,-0.44385
1.625,-0.875,-1.4375,2.5625,0.003418,-0.032715,1.0015,0.22021,0.038574,-0.44873
1.6289,-0.9375,-1.625,2.25,-0.0078125,-0.036621,1.0283,0.22021,0.038574,-0.44873
1.6328,-1.25,-1.4375,1.875,-0.0078125,-0.032715,0.99756,0.22021,0.038574,-0.44873
1.6367,-1.0625,-1.75,2.0625,-0.0078125,-0.067871,0.98975,0.22021,0.038574,-0.44873
1.6406,-0.75,-1.4375,1.75,-0.0078125,-0.044434,1.0054,0.22021,0.038574,-0.44873
1.6445,-0.5625,-1.3125,1.4375,-0.0039062,-0.04834,1.0093,0.22021,0.038574,-0.44873
1.6484,-0.1875,-1.4375,1.0625,0.003418,-0.044434,1.0054,0.22021,0.038574,-0.44873
1.6523,0.25,-1.4375,1.0625,0.01123,-0.052246,0.99365,0.21777,0.033691,-0.43604
1.6562,0.375,-1.375,1.125,-0.02002,-0.044434,1.0015,0.21777,0.033691,-0.43604
1.6602,0.6875,-1.3125,0.6875,-0.012207,-0.060059,0.97803,0.21777,0.033691,-0.43604
1.6641,0.4375,-1.375,0.5625,0.01123,-0.04834,0.97412,0.2124,0.028809,-0.43359
1.668,0.375,-1.375,0.125,0,-0.04834,0.9668,0.2124,0.028809,-0.43359
1.6719,0.25,-1.3125,-0.0625,-0.016113,-0.036621,1.0166,0.2124,0.028809,-0.43359
1.6758,0.6875,-0.9375,-0.125,0.019043,-0.04834,1.0054,0.2124,0.028809,-0.43359
1.6797,0.3125,-0.625,0,-0.0039062,-0.032715,0.99365,0.22021,0.03125,-0.44629
1.6836,0.1875,-0.5625,0,0.019043,-0.028809,0.99365,0.22021,0.03125,-0.44629
1.6875,-0.5,-0.3125,-0.25,0,-0.036621,1.0015,0.22021,0.03125,-0.44629
1.6914,-0.375,-0.375,-0.6875,-0.0039062,-0.040527,1.0093,0.22021,0.018555,-0.44629
1.6953,-0.4375,-0.4375,-0.8125,0.003418,-0.040527,1.0093,0.22021,0.018555,-0.44629
1.6992,-0.4375,-0.0625,-0.8125,-0.012207,-0.036621,0.98975,0.22021,0.018555,-0.44629
1.7031,-0.3125,0.1875,-0.875,0,-0.036621,0.98975,0.2251,0.03125,-0.43848
1.707,-0.25,0.25,-0.6875,-0.02002,-0.028809,1.0054,0.2251,0.03125,-0.43848
1.7109,-0.1875,0.375,-0.5625,-0.0039062,-0.052246,1.0093,0.2251,0.03125,-0.43848
1.7148,0,0.5625,-0.1875,-0.016113,-0.032715,0.99756,0.2251,0.03125,-0.43848
1.7188,-0.3125,0.5,0,-0.0039062,-0.01709,1.0015,0.21484,0.036133,-0.44141
1.7227,-0.25,0.375,0.4375,0,-0.032715,1.0015,0.21484,0.036133,-0.44141
1.7266,-0.375,0.125,0.5625,0,-0.036621,1.0127,0.21484,0.036133,-0.44141
1.7305,0.0625,0.8125,0.4375,-0.0039062,-0.036621,0.98975,0.20996,0.023438,-0.44873
1.7344,0.25,0.8125,0.9375,-0.0078125,-0.032715,1.0015,0.20996,0.023438,-0.44873
1.7383,0.3125,0.625,1,0.0073242,-0.036621,0.99756,0.20996,0.023438,-0.44873
1.7422,0.4375,0.3125,1.1875,-0.023926,-0.052246,1.0093,0.20996,0.023438,-0.44873
1.7461,0.25,0.25,1.5,0.019043,-0.044434,1.0054,0.20996,0.023438,-0.44873
1.75,-0.0625,-0.1875,1.75,-0.023926,-0.04834,1.0244,0.20996,0.023438,-0.44873
1.7539,-0.1875,-0.3125,1.8125,-0.0078125,-0.060059,1.0054,0.20996,0.023438,-0.44873
1.7578,-0.1875,-0.8125,1.75,0,-0.036621,1.0015,0.2124,0.028809,-0.44629
1.7617,-0.1875,-1.0625,1.5625,0.003418,-0.040527,0.99365,0.2124,0.028809,-0.44629
1.7656,0,-1.5625,1.3125,-0.016113,-0.032715,1.0015,0.2124,0.028809,-0.44629
1.7695,0,-1.75,1.375,-0.016113,-0.036621,1.0093,0.22021,0.043457,-0.43848
1.7734,0,-1.625,1.3125,-0.0078125,-0.040527,1.0205,0.22021,0.043457,-0.43848
1.7773,-0.375,-1.3125,1.3125,-0.02002,-0.040527,1.0127,0.22021,0.043457,-0.43848
1.7812,-0.0625,-1.375,0.9375,0.0073242,-0.04834,1.0054,0.22021,0.043457,-0.43848
1.7852,0,-1.0625,0.625,-0.016113,-0.024902,1.0166,0.2124,0.03125,-0.43848
1.7891,0.3125,-0.8125,0.625,0.0073242,-0.036621,1.0054,0.2124,0.03125,-0.43848
1.793,-0.125,-0.5625,0.4375,0.01123,-0.04834,0.98584,0.2124,0.03125,-0.43848
1.7969,-0.125,-0.625,0.5625,0.003418,-0.056152,1.0054,0.21484,0.028809,-0.44873
1.8008,-0.5625,-0.75,0.0625,-0.0078125,-0.04834,0.97803,0.21484,0.028809,-0.44873
1.8047,-0.5,-0.625,-0.0625,0.019043,-0.020996,1.0127,0.21484,0.028809,-0.44873
1.8086,-0.3125,-0.3125,-0.1875,0.003418,-0.040527,0.98193,0.21484,0.028809,-0.44873
1.8125,0,-0.125,-0.4375,0,-0.052246,1.0127,0.21484,0.028809,-0.44873
1.8164,0.125,0.1875,-0.5625,-0.0078125,-0.052246,1.0093,0.21484,0.028809,-0.44873
1.8203,0.25,0.375,-0.625,-0.0039062,-0.028809,0.98975,0.21484,0.028809,-0.44873
1.8242,0.5625,0.875,-0.4375,-0.0078125,-0.04834,0.98975,0.2124,0.033691,-0.44385
1.8281,0.5625,1.1875,-0.6875,-0.012207,-0.028809,0.99365,0.2124,0.033691,-0.44385
1.832,0.4375,1.3125,-0.5,-0.012207,-0.01709,1.0015,0.2124,0.033691,-0.44385
1.8359,0.375,1.25,-0.5,0.01123,-0.052246,1.0093,0.22021,0.036133,-0.44385
1.8398,0.25,1.4375,-0.375,0.003418,-0.036621,1.0166,0.22021,0.036133,-0.44385
1.8438,0.4375,1.5625,-0.375,-0.0078125,-0.052246,0.99756,0.22021,0.036133,-0.44385
1.8477,0.625,0.875,-0.5,0,-0.052246,0.97412,0.22021,0.036133,-0.44385
1.8516,0.5,0.9375,-0.375,0,-0.052246,1.0127,0.21484,0.03125,-0.44385
1.8555,0.125,1.3125,-0.1875,0.0073242,-0.04834,1.0015,0.21484,0.03125,-0.44385
1.8594,0,1.4375,0.125,-0.0078125,-0.052246,1.0093,0.21484,0.03125,-0.44385
1.8633,0.375,1.5,0.125,-0.012207,-0.052246,0.98975,0.22266,0.041016,-0.44141
1.8672,0.1875,1.25,0.375,-0.0078125,-0.060059,1.0166,0.22266,0.041016,-0.44141
1.8711,0.25,1.3125,0.625,0.003418,-0.063965,1.0054,0.22266,0.041016,-0.44141
1.875,0.1875,1.1875,0.3125,0.0073242,-0.04834,0.99365,0.2124,0.036133,-0.44629
1.8789,0.1875,1.0625,0.5625,0.019043,-0.056152,1.0054,0.2124,0.036133,-0.44629
1.8828,0.5625,1.3125,0.5,-0.016113,-0.052246,1.0015,0.2124,0.036133,-0.44629
1.8867,1.125,1.1875,0.1875,-0.0039062,-0.052246,1.0015,0.2124,0.036133,-0.44629
1.8906,1.1875,0.875,0,0.003418,-0.04834,1.0127,0.22021,0.033691,-0.44385
1.8945,1.625,0.875,0,-0.0039062,-0.036621,1.0015,0.22021,0.033691,-0.44385
1.8984,1.25,0.8125,-0.25,0.003418,-0.067871,1.0127,0.22021,0.033691,-0.44385
1.9023,1,0.875,-0.125,-0.016113,-0.044434,1.0054,0.22266,0.023438,-0.44141
1.9062,0.875,1.375,0,-0.02002,-0.060059,0.99365,0.22266,0.023438,-0.44141
1.9102,1.125,1.4375,0.0625,-0.02002,-0.024902,0.99365,0.22266,0.023438,-0.44141
1.9141,0.5625,1.375,-0.6875,-0.012207,-0.036621,1.0015,0.22266,0.023438,-0.44141
1.918,0.8125,0.875,-0.75,-0.012207,-0.052246,1.0015,0.22266,0.023438,-0.44141
1.9219,0.9375,1.0625,-0.9375,-0.016113,-0.020996,1.0127,0.22266,0.023438,-0.44141
1.9258,1.0625,1.0625,-1,-0.0078125,-0.036621,0.99365,0.22266,0.023438,-0.44141
1.9297,1.1875,0.625,-0.8125,-0.0039062,-0.04834,1.0054,0.21777,0.036133,-0.44385
1.9336,0.625,-0.0625,-0.4375,0.015137,-0.052246,0.99756,0.21777,0.036133,-0.44385
1.9375,0.1875,-0.4375,-0.6875,0.003418,-0.04834,0.99365,0.21777,0.036133,-0.44385
1.9414,0.3125,-0.625,-0.1875,-0.012207,-0.052246,1.0093,0.2124,0.033691,-0.44141
1.9453,0.125,-0.6875,-0.25,-0.016113,-0.052246,1.0166,0.2124,0.033691,-0.44141
1.9492,0,-0.375,0,-0.0039062,-0.044434,0.98584,0.2124,0.033691,-0.44141
1.9531,-0.25,-0.4375,0.25,-0.0039062,-0.044434,1.0166,0.2124,0.033691,-0.44141
1.957,-0.125,-0.25,0.6875,0.003418,-0.052246,0.99365,0.22266,0.03125,-0.44141
1.9609,0,0,0.75,0,-0.04834,0.98975,0.22266,0.03125,-0.44141
1.9648,0.0625,0.0625,1.3125,-0.02002,-0.036621,1.0015,0.22266,0.03125,-0.44141
1.9688,0.25,0.125,1.125,0.003418,-0.024902,1.0015,0.22754,0.03125,-0.44141
1.9727,0.0625,0,1.5,-0.0039062,-0.044434,1.0015,0.22754,0.03125,-0.44141
1.9766,0.125,0.0625,1.6875,-0.012207,-0.024902,1.0015,0.22754,0.03125,-0.44141
1.9805,0.125,0.375,1.625,-0.02002,-0.036621,1.0054,0.22754,0.03125,-0.44141
1.9844,0,0.5,1.25,0.003418,-0.040527,1.0093,0.22754,0.03125,-0.44141
1.9883,0.3125,0.4375,1.3125,-0.0039062,-0.04834,1.0205,0.22754,0.03125,-0.44141
1.9922,0.4375,1.125,0.9375,-0.0078125,-0.028809,1.0015,0.22754,0.03125,-0.44141
1.9961,0.6875,1.625,0.5625,-0.0078125,-0.036621,1.0093,0.21484,0.028809,-0.43848
2,0.6875,2.0625,0.25,0,-0.040527,0.99756,0.21484,0.028809,-0.43848
2.0039,0.3125,2.375,-0.25,-0.023926,-0.044434,0.98975,0.21484,0.028809,-0.43848
2.0078,0.4375,2.6875,-0.5,-0.012207,-0.036621,0.99756,0.2124,0.023438,-0.44141
2.0117,0.375,2.6875,-0.75,0,-0.044434,1.0093,0.2124,0.023438,-0.44141
2.0156,0.25,2.25,-1.0625,-0.0039062,-0.044434,0.97803,0.2124,0.023438,-0.44141
2.0195,0.3125,2.0625,-1.375,-0.012207,-0.032715,1.0015,0.2124,0.023438,-0.44141
2.0234,0.0625,1.625,-1.75,-0.012207,-0.052246,0.98975,0.20752,0.025879,-0.43848
2.0273,0,1.8125,-2.5,0.0073242,-0.028809,1.0054,0.20752,0.025879,-0.43848
2.0312,-0.125,1.75,-2.75,0.003418,-0.071777,0.9668,0.20752,0.025879,-0.43848
2.0352,0.375,1.0625,-2.6875,-0.016113,-0.040527,0.99365,0.22266,0.03125,-0.43848
2.0391,0.5625,0,-2.5625,-0.02002,-0.044434,1.0054,0.22266,0.03125,-0.43848
2.043,0.6875,-0.1875,-2.125,-0.016113,-0.052246,0.99365,0.22266,0.03125,-0.43848
2.0469,0.4375,-0.75,-2.3125,0.0073242,-0.044434,1.0015,0.21484,0.03125,-0.44385
2.0508,0.125,-1,-2.0625,0,-0.04834,1.0015,0.21484,0.03125,-0.44385
2.0547,0.4375,-0.9375,-1.9375,-0.0078125,-0.071777,0.98975,0.21484,0.03125,-0.44385
2.0586,0.625,-0.8125,-1.5625,0.0073242,-0.056152,1.0166,0.21484,0.03125,-0.44385
2.0625,0.4375,-0.5,-1.1875,-0.016113,-0.044434,1.0166,0.2124,0.028809,-0.42871
2.0664,0.625,-0.25,-0.8125,-0.02002,-0.044434,1.0054,0.2124,0.028809,-0.42871
2.0703,0.625,-0.125,-0.4375,-0.0039062,-0.052246,0.99365,0.2124,0.028809,-0.42871
2.0742,1.0625,0.0625,-0.1875,-0.012207,-0.036621,1.0205,0.22021,0.025879,-0.44141
2.0781,1.25,0.0625,0,-0.0078125,-0.056152,1.0054,0.22021,0.025879,-0.44141
2.082,0.875,0.1875,-0.0625,-0.0039062,-0.036621,1.0015,0.22021,0.025879,-0.44141
2.0859,0.5,0.375,0,-0.016113,-0.020996,1.0015,0.22021,0.025879,-0.44141
2.0898,0.1875,0.1875,-0.125,-0.012207,-0.052246,1.0093,0.22021,0.025879,-0.44141
2.0938,0.4375,0.125,0,0.01123,-0.040527,0.98584,0.22021,0.025879,-0.44141
2.0977,0.3125,0.1875,-0.25,-0.016113,-0.036621,1.0054,0.22021,0.025879,-0.44141
2.1016,0.1875,0.0625,-0.1875,-0.016113,-0.044434,1.0205,0.22021,0.038574,-0.44629
2.1055,0.1875,0.6875,-0.5,-0.031738,-0.036621,0.98584,0.22021,0.038574,-0.44629
2.1094,0.375,1.0625,-0.75,-0.016113,-0.01709,1.0166,0.22021,0.038574,-0.44629
2.1133,0.0625,1.1875,-0.75,-0.031738,-0.028809,1.0127,0.21777,0.020996,-0.44141
2.1172,0.25,1.25,-0.75,-0.027832,-0.052246,1.0093,0.21777,0.020996,-0.44141
2.1211,0.3125,1.5625,-0.75,-0.0078125,-0.052246,1.0015,0.21777,0.020996,-0.44141
2.125,0,2,-1.0625,-0.016113,-0.044434,1.0015,0.21777,0.020996,-0.44141
2.1289,-0.0625,1.875,-0.8125,-0.016113,-0.032715,1.0015,0.21777,0.03125,-0.44385
2.1328,-0.4375,1.75,-0.5625,-0.012207,-0.032715,0.98584,0.21777,0.03125,-0.44385
2.1367,-0.625,1.375,-0.375,-0.016113,-0.04834,1.0127,0.21777,0.03125,-0.44385
2.1406,-0.8125,0.625,-0.375,0,-0.01709,1.0015,0.22754,0.038574,-0.43604
2.1445,-0.5,-0.1875,-0.875,-0.0078125,-0.040527,1.0015,0.22754,0.038574,-0.43604
2.1484,-0.375,-1.0625,-0.75,0.0073242,-0.044434,1.0054,0.22754,0.038574,-0.43604
2.1523,-0.0625,-1.375,-0.6875,0.003418,-0.032715,0.98584,0.21484,0.020996,-0.43848
2.1562,-0.625,-1.75,-0.75,-0.012207,-0.032715,0.98584,0.21484,0.020996,-0.43848
2.1602,-0.75,-1.5,-0.6875,0.003418,-0.04834,1.0166,0.21484,0.020996,-0.43848
2.1641,-0.875,-1.3125,-0.375,-0.0039062,-0.024902,1.0093,0.21484,0.020996,-0.43848
2.168,-0.875,-1.125,-0.375,0.003418,-0.028809,0.9707,0.21484,0.028809,-0.43115
2.1719,-1,-1.4375,-0.4375,-0.016113,-0.036621,0.98975,0.21484,0.028809,-0.43115
2.1758,-0.5625,-1.5625,-0.5625,0.0073242,-0.01709,1.0166,0.21484,0.028809,-0.43115
2.1797,-0.5625,-1.5,-0.5625,0,-0.028809,1.04,0.21777,0.025879,-0.44629
2.1836,-0.375,-1.5,-0.5625,-0.0078125,-0.020996,1.0127,0.21777,0.025879,-0.44629
2.1875,-0.5,-1.1875,-0.75,0,-0.044434,1.0166,0.21777,0.025879,-0.44629
2.1914,-0.75,-1.5,-0.8125,-0.012207,-0.044434,1.0015,0.21777,0.025879,-0.44629
2.1953,-0.8125,-1.3125,-0.5,-0.0078125,-0.01709,0.96289,0.21484,0.020996,-0.44141
2.1992,-0.8125,-1.25,-0.625,-0.016113,-0.028809,0.97803,0.21484,0.020996,-0.44141
2.2031,-0.6875,-1.3125,-0.375,-0.016113,-0.032715,1.0127,0.21484,0.020996,-0.44141
2.207,-0.375,-1,-0.5,-0.012207,-0.032715,1.0015,0.21777,0.020996,-0.44629
2.2109,-0.125,-0.875,-0.5,-0.0039062,-0.040527,1.0093,0.21777,0.020996,-0.44629
2.2148,-0.25,-0.6875,0,0.003418,-0.052246,1.0015,0.21777,0.020996,-0.44629
2.2188,-0.25,-0.5625,0,-0.012207,-0.040527,0.99756,0.2124,0.038574,-0.43359
2.2227,-0.375,-0.875,-0.125,-0.0039062,-0.044434,1.0015,0.2124,0.038574,-0.43359
2.2266,-0.25,-1,-0.3125,-0.0039062,-0.036621,0.99365,0.2124,0.038574,-0.43359
2.2305,-0.125,-0.75,-0.3125,-0.0078125,-0.036621,0.99365,0.2124,0.038574,-0.43359
2.2344,-0.5625,-0.625,0,-0.02002,-0.01709,1.0127,0.22754,0.03125,-0.43848
2.2383,-0.4375,-0.625,0,-0.0039062,-0.060059,0.99365,0.22754,0.03125,-0.43848
2.2422,-0.125,-0.1875,0.0625,-0.0078125,-0.044434,1.0054,0.22754,0.03125,-0.43848
2.2461,-0.6875,-0.375,0.0625,-0.0039062,-0.040527,1.0054,0.22266,0.033691,-0.44141
2.25,-0.5,-0.25,0.1875,0.003418,-0.052246,0.98193,0.22266,0.033691,-0.44141
2.2539,-0.625,0,0.5,-0.0078125,-0.032715,1.0322,0.22266,0.033691,-0.44141
2.2578,-0.8125,-0.0625,0.5625,-0.0039062,-0.056152,0.98584,0.22266,0.033691,-0.44141
2.2617,-0.75,-0.0625,0.5,-0.0039062,-0.044434,1.0015,0.22266,0.033691,-0.44141
2.2656,-0.4375,-0.125,0.3125,0,-0.032715,1.0127,0.22266,0.033691,-0.44141
2.2695,-0.5,-0.0625,0.0625,-0.0078125,-0.044434,1.0093,0.22266,0.033691,-0.44141
2.2734,-0.625,0,0,0.003418,-0.024902,0.97412,0.20996,0.03125,-0.44385
2.2773,-0.8125,-0.25,0,0.003418,-0.028809,0.97803,0.20996,0.03125,-0.44385
2.2812,-0.875,-0.5,0.125,-0.016113,-0.052246,1.0054,0.20996,0.03125,-0.44385
2.2852,-0.75,-0.9375,0.1875,0,-0.056152,1.0054,0.20996,0.028809,-0.44141
2.2891,-0.25,-1,-0.25,0.003418,-0.040527,0.98975,0.20996,0.028809,-0.44141
2.293,0.0625,-1,-0.5625,-0.0078125,-0.036621,1.0127,0.20996,0.028809,-0.44141
2.2969,0.3125,-0.3125,-0.8125,-0.012207,-0.036621,1.0244,0.20996,0.028809,-0.44141
2.3008,0.375,0.25,-1,-0.016113,-0.024902,1.0244,0.21484,0.025879,-0.44385
2.3047,0.4375,0.6875,-0.75,-0.0078125,-0.056152,1.0244,0.21484,0.025879,-0.44385
2.3086,0.5,1.3125,-0.25,-0.016113,-0.040527,0.99365,0.21484,0.025879,-0.44385
2.3125,0.6875,2,-0.6875,-0.012207,-0.040527,1.0015,0.21484,0.018555,-0.44385
2.3164,0.875,2.4375,-0.6875,-0.0078125,-0.024902,1.0054,0.21484,0.018555,-0.44385
2.3203,0.6875,2.375,-0.9375,-0.012207,-0.052246,1.0166,0.21484,0.018555,-0.44385
2.3242,1.4375,3.125,-0.75,-0.0039062,-0.044434,1.0015,0.2124,0.03125,-0.44141
2.3281,1,3.6875,-0.9375,-0.023926,-0.040527,1.0015,0.2124,0.03125,-0.44141
2.332,1.0625,4.1875,-0.625,0.003418,-0.052246,1.0015,0.2124,0.03125,-0.44141
2.3359,0.75,4.5,-0.75,-0.023926,-0.036621,1.0093,0.2124,0.03125,-0.44141
2.3398,0.625,4.4375,-0.9375,-0.027832,-0.060059,1.0166,0.2124,0.020996,-0.44141
2.3438,1.125,4.5,-1.0625,0.003418,-0.060059,1.0015,0.2124,0.020996,-0.44141
2.3477,1.4375,4.375,-1.375,0.01123,-0.040527,1.0166,0.2124,0.020996,-0.44141
2.3516,1.625,4,-1.625,0.0073242,-0.040527,1.0015,0.2124,0.036133,-0.43848
2.3555,1.8125,3.875,-1.75,-0.016113,-0.04834,1.0054,0.2124,0.036133,-0.43848
2.3594,1.6875,3.5625,-1.5625,0.003418,-0.036621,0.98584,0.2124,0.036133,-0.43848
2.3633,1.1875,3.125,-1.5,-0.0039062,-0.036621,1.0054,0.2124,0.036133,-0.43848
2.3672,1.0625,2.625,-1.375,-0.0078125,-0.032715,0.97412,0.22266,0.025879,-0.43359
2.3711,0.875,2.25,-1.125,0,-0.036621,1.0166,0.22266,0.025879,-0.43359
2.375,1,1.8125,-1.0625,0,-0.040527,0.99365,0.22266,0.025879,-0.43359
2.3789,1,1.375,-1.125,0.003418,-0.052246,0.98975,0.22021,0.03125,-0.44873
2.3828,1.1875,1.0625,-0.9375,0,-0.052246,0.98193,0.22021,0.03125,-0.44873
2.3867,1.125,0.8125,-0.4375,-0.012207,-0.060059,0.98584,0.22021,0.03125,-0.44873
2.3906,1.6875,0.5625,-0.1875,-0.023926,-0.04834,0.98975,0.22021,0.020996,-0.43604
2.3945,1.875,0.875,0,-0.02002,-0.032715,0.99365,0.22021,0.020996,-0.43604
2.3984,1.8125,1.1875,0.375,-0.0039062,-0.028809,1.0205,0.22021,0.020996,-0.43604
2.4023,2.0625,1.3125,0.75,-0.02002,-0.052246,1.0093,0.22021,0.020996,-0.43604
2.4062,2.1875,0.9375,1,-0.0039062,-0.036621,1.0166,0.22266,0.023438,-0.43848
2.4102,1.9375,0.875,1.125,-0.012207,-0.056152,0.99756,0.22266,0.023438,-0.43848
2.4141,2.375,0.5,1.1875,-0.0039062,-0.036621,0.98584,0.22266,0.023438,-0.43848
2.418,2.4375,0.4375,0.9375,-0.0039062,-0.052246,0.9707,0.22021,0.038574,-0.44629
2.4219,2.25,0,0.8125,-0.016113,-0.024902,0.97803,0.22021,0.038574,-0.44629
2.4258,1.75,-0.4375,0.8125,0.003418,-0.036621,1.0093,0.22021,0.038574,-0.44629
2.4297,1.375,-0.875,1.0625,-0.016113,-0.024902,0.99756,0.22021,0.038574,-0.44629
2.4336,1.375,-1,0.6875,-0.0078125,-0.04834,1.0093,0.22021,0.038574,-0.44629
2.4375,1.5,-1.1875,0.75,-0.016113,-0.044434,0.98193,0.22021,0.038574,-0.44629
2.4414,1.6875,-1.0625,0.8125,-0.0039062,-0.052246,0.97803,0.22021,0.038574,-0.44629
2.4453,1.75,-1.625,0.625,0.0073242,-0.056152,1.0015,0.21777,0.03125,-0.44385
2.4492,2.0625,-1.8125,0.6875,-0.0078125,-0.024902,1.0093,0.21777,0.03125,-0.44385
2.4531,1.9375,-2.375,0.4375,0.01123,-0.04834,1.0015,0.21777,0.03125,-0.44385
2.457,2.125,-2.9375,0.3125,0,-0.032715,0.9707,0.22266,0.023438,-0.44873
2.4609,2.3125,-3.375,0.0625,-0.0078125,-0.044434,0.9668,0.22266,0.023438,-0.44873
2.4648,2.0625,-3.4375,0.4375,-0.012207,-0.052246,1.0015,0.22266,0.023438,-0.44873
2.4688,1.375,-3.625,0.5625,-0.0078125,-0.052246,0.98584,0.22266,0.023438,-0.44873
2.4727,0.8125,-3.375,0.5625,-0.0039062,-0.040527,1.0127,0.21777,0.020996,-0.44385
2.4766,0.3125,-2.75,0.625,-0.012207,-0.044434,0.99365,0.21777,0.020996,-0.44385
2.4805,0.1875,-1.875,0.75,0.003418,-0.052246,1.0166,0.21777,0.020996,-0.44385
2.4844,-0.25,-1.5625,0.625,-0.0078125,-0.036621,1.0205,0.22266,0.023438,-0.43848
2.4883,-0.5,-1.1875,0.875,-0.012207,-0.032715,0.99365,0.22266,0.023438,-0.43848
2.4922,-0.4375,-0.9375,1,0,-0.052246,1.0283,0.22266,0.023438,-0.43848
2.4961,-0.0625,-1.1875,1.1875,-0.023926,-0.032715,1.0166,0.2124,0.025879,-0.44141
2.5,0.125,-1.5,1,-0.016113,-0.01709,1.0054,0.2124,0.025879,-0.44141
2.5039,0.5625,-1.875,0.625,0.003418,-0.020996,1.0205,0.2124,0.025879,-0.44141
2.5078,1.0625,-2.0625,0.4375,0,-0.0092773,1.0054,0.2124,0.025879,-0.44141
2.5117,1,-2.125,0.375,-0.02002,-0.020996,1.0205,0.2124,0.023438,-0.44629
2.5156,1.3125,-1.9375,0.4375,-0.016113,-0.036621,1.0205,0.2124,0.023438,-0.44629
2.5195,1.625,-1.75,0.375,-0.0039062,-0.020996,1.0322,0.2124,0.023438,-0.44629
2.5234,1.625,-1.5,0.5,-0.012207,-0.013184,1.0093,0.22021,0.03125,-0.43604
2.5273,2.1875,-1.3125,0.75,-0.027832,-0.013184,1.0283,0.22021,0.03125,-0.43604
2.5312,2,-0.6875,0.8125,-0.02002,-0.028809,1.0205,0.22021,0.03125,-0.43604
2.5352,2.3125,-0.5,1.125,-0.012207,-0.036621,1.0205,0.22021,0.03125,-0.43604
2.5391,2.125,-0.4375,1.0625,-0.027832,-0.01709,0.98975,0.22021,0.03125,-0.43604
2.543,2.5,-1,1.3125,-0.031738,-0.044434,1.0093,0.22021,0.03125,-0.43604
2.5469,2.6875,-1.0625,1.25,-0.016113,-0.032715,1.0127,0.22021,0.03125,-0.43604
2.5508,2.8125,-1.8125,1.5,0.003418,-0.040527,1.0166,0.22266,0.025879,-0.44385
2.5547,2.75,-2.625,1.1875,0.003418,-0.024902,0.98584,0.22266,0.025879,-0.44385
2.5586,2.9375,-3.5625,0.6875,0.003418,-0.028809,0.99365,0.22266,0.025879,-0.44385
2.5625,2.875,-4.4375,0.5,0.019043,-0.024902,0.98193,0.22021,0.033691,-0.44141
2.5664,3.125,-4.875,0.5625,0.019043,-0.040527,1.0015,0.22021,0.033691,-0.44141
2.5703,2.6875,-5.5,0.6875,0,-0.028809,0.98193,0.22021,0.033691,-0.44141
2.5742,2.375,-5.125,0.75,0.003418,-0.040527,1.0166,0.22021,0.033691,-0.44141
2.5781,2.0625,-5,0.875,0.003418,-0.052246,1.0054,0.2251,0.03125,-0.44629
2.582,2.5,-4.375,0.9375,-0.012207,-0.032715,1.0244,0.2251,0.03125,-0.44629
2.5859,2.0625,-3.875,1.4375,0.015137,-0.040527,1.0015,0.2251,0.03125,-0.44629
2.5898,1.375,-3.5625,1.5,0.003418,-0.036621,1.0054,0.21484,0.038574,-0.43604
2.5938,1,-3.0625,1.4375,0.022949,-0.052246,1.0015,0.21484,0.038574,-0.43604
2.5977,1.25,-2.75,1.3125,-0.016113,-0.044434,1.0015,0.21484,0.038574,-0.43604
2.6016,0.9375,-2.0625,1.75,0.019043,-0.052246,1.0015,0.21484,0.038574,-0.43604
2.6055,0.4375,-2.0625,1.8125,0.003418,-0.056152,1.0166,0.21484,0.038574,-0.43604
2.6094,0.875,-1.8125,1.875,0.0073242,-0.028809,1.0015,0.21484,0.038574,-0.43604
2.6133,1.25,-1.9375,1.5,0.019043,-0.028809,0.98584,0.21484,0.038574,-0.43604
2.6172,1.3125,-1.6875,1.125,0,-0.036621,1.0127,0.22021,0.023438,-0.44141
2.6211,1.6875,-0.6875,0.625,-0.0078125,-0.040527,1.0244,0.22021,0.023438,-0.44141
2.625,1.75,0.0625,0.8125,0.01123,-0.036621,1.0127,0.22021,0.023438,-0.44141
2.6289,1.5625,1.0625,0.5625,-0.0078125,-0.024902,0.99365,0.21484,0.033691,-0.44385
2.6328,1.3125,1.875,0.4375,-0.016113,-0.036621,1.0166,0.21484,0.033691,-0.44385
2.6367,1.25,2.4375,0.375,-0.0039062,-0.028809,1.0054,0.21484,0.033691,-0.44385
2.6406,1.625,2.5,0.0625,0,-0.032715,1.0093,0.21484,0.033691,-0.44385
2.6445,1.8125,2.8125,0.125,0.019043,-0.020996,1.0127,0.21484,0.018555,-0.43359
2.6484,2.125,2.25,0.1875,0.003418,-0.028809,1.0166,0.21484,0.018555,-0.43359
2.6523,2.25,1.6875,-0.0625,0.015137,-0.032715,1.0015,0.21484,0.018555,-0.43359
2.6562,2.1875,0.8125,0,0.035156,-0.040527,1.0015,0.2124,0.03125,-0.44385
2.6602,1.875,0.3125,0.4375,-0.0039062,-0.044434,0.98975,0.2124,0.03125,-0.44385
2.6641,1.6875,0,0.0625,0,-0.01709,1.0015,0.2124,0.03125,-0.44385
2.668,1.75,-0.4375,0,-0.016113,-0.01709,0.97412,0.22266,0.023438,-0.43848
2.6719,2,-0.9375,-0.25,0.0073242,-0.032715,1.0054,0.22266,0.023438,-0.43848
2.6758,2.1875,-1.25,-0.4375,0,-0.01709,1.0054,0.22266,0.023438,-0.43848
2.6797,2.125,-0.9375,-0.8125,0,-0.0092773,1.0015,0.22266,0.023438,-0.43848
2.6836,1.5625,-0.25,-0.5625,-0.0078125,-0.032715,1.0093,0.22754,0.020996,-0.43604
2.6875,0.875,0,-0.5,-0.012207,-0.036621,1.0093,0.22754,0.020996,-0.43604
2.6914,0.6875,0.125,-0.375,-0.0078125,-0.052246,1.0015,0.22754,0.020996,-0.43604
2.6953,1.125,0.25,-0.125,0,-0.028809,0.99365,0.20752,0.020996,-0.43359
2.6992,1.625,0.125,0,0.01123,-0.036621,1.0093,0.20752,0.020996,-0.43359
2.7031,2.25,-0.375,-0.1875,0.003418,-0.0092773,0.99365,0.20752,0.020996,-0.43359
2.707,2.375,-0.4375,-0.375,-0.0078125,-0.01709,1.0054,0.20752,0.020996,-0.43359
2.7109,2.5,-0.75,0,0.01123,-0.036621,1.0093,0.20752,0.020996,-0.43359
2.7148,2.6875,-0.5,0.125,0,-0.01709,1.0093,0.20752,0.020996,-0.43359
2.7188,2.5,-0.5625,-0.125,-0.016113,-0.028809,0.98975,0.20752,0.020996,-0.43359
2.7227,2.5,0,-0.0625,-0.012207,-0.052246,0.99365,0.22021,0.020996,-0.44141
2.7266,1.875,0.125,0.375,-0.023926,-0.032715,1.0015,0.22021,0.020996,-0.44141
2.7305,1.375,0.125,0.8125,0.003418,-0.040527,0.98584,0.22021,0.020996,-0.44141
2.7344,0.625,0.1875,1.625,0.003418,-0.024902,1.0015,0.21777,0.020996,-0.44385
2.7383,0.8125,0.5,1.6875,0.003418,-0.036621,1.0166,0.21777,0.020996,-0.44385
2.7422,1.5625,0.4375,1.375,0.003418,-0.024902,0.98975,0.21777,0.020996,-0.44385
2.7461,2.125,0.5625,1.5,0,-0.024902,0.98975,0.21777,0.020996,-0.44385
2.75,2.4375,0.5,2.1875,-0.039551,-0.028809,0.98584,0.20752,0.028809,-0.43848
2.7539,1.6875,0.5,2.375,0.0073242,-0.028809,1.0015,0.20752,0.028809,-0.43848
2.7578,1.5625,0.625,2.3125,-0.012207,-0.01709,0.99365,0.20752,0.028809,-0.43848
2.7617,1.375,0.8125,2.1875,-0.0078125,-0.036621,1.0054,0.20752,0.023438,-0.43848
2.7656,1.1875,1.0625,1.625,-0.012207,-0.028809,1.0015,0.20752,0.023438,-0.43848
2.7695,0.9375,1.5,1.375,0,-0.024902,1.0205,0.20752,0.023438,-0.43848
2.7734,0.75,2.0625,1.5,-0.0078125,-0.013184,1.0166,0.20752,0.023438,-0.43848
2.7773,0.6875,2.625,1.8125,-0.012207,-0.0053711,1.0054,0.20752,0.023438,-0.43848
2.7812,0.6875,3.0625,1.6875,-0.016113,-0.013184,0.99365,0.20752,0.023438,-0.43848
2.7852,0.3125,3.1875,1.9375,0.015137,-0.028809,1.0166,0.20752,0.023438,-0.43848
2.7891,0,3.3125,1.9375,0.019043,-0.024902,1.0015,0.21777,0.020996,-0.43848
2.793,-0.6875,3.4375,1.9375,-0.012207,-0.044434,1.0283,0.21777,0.020996,-0.43848
2.7969,-0.6875,3,2.4375,-0.016113,-0.04834,0.98584,0.21777,0.020996,-0.43848
2.8008,-1.25,2.4375,2.6875,-0.0039062,-0.056152,0.98193,0.21484,0.025879,-0.44141
2.8047,-1.4375,0.625,3.0625,-0.035645,-0.036621,1.0054,0.21484,0.025879,-0.44141
2.8086,-1.1875,0.625,2.625,0.035156,-0.040527,1.0015,0.21484,0.025879,-0.44141
2.8125,-1.0625,-1,3.0625,-0.0039062,-0.052246,0.97412,0.21484,0.025879,-0.44141
2.8164,0.8125,-6.625,5.9375,-0.055664,-0.095215,0.8623,0.22266,0.028809,-0.44385
2.8203,5.5,-9.125,7.125,0.10986,0.0097656,1.1016,0.22266,0.028809,-0.44385
2.8242,4.6875,-7.375,2.9375,0.022949,-0.01709,1.0205,0.22266,0.028809,-0.44385
2.8281,3.1875,-6.4375,3.375,-0.023926,-0.060059,1.0093,0.2124,0.023438,-0.44141
2.832,2.875,-5.3125,3.1875,0.003418,0.017578,0.99365,0.2124,0.023438,-0.44141
2.8359,3.875,-3.8125,2.25,0.003418,0.017578,1.0166,0.2124,0.023438,-0.44141
2.8398,4.8125,-2.6875,1.4375,0.003418,-0.01709,1.0244,0.20752,0.018555,-0.43604
2.8438,6.5,-0.625,0.875,-0.063477,-0.060059,0.98584,0.20752,0.018555,-0.43604
2.8477,6.4375,0.5,1.5625,-0.012207,-0.075684,1.0093,0.20752,0.018555,-0.43604
2.8516,7,1.5,1.9375,0.01123,-0.052246,0.9668,0.20752,0.018555,-0.43604
2.8555,6.3125,0.6875,2.5625,0.01123,-0.052246,0.95898,0.20508,0.023438,-0.43848
2.8594,5.5625,-1.3125,2.5625,0.015137,-0.028809,0.95898,0.20508,0.023438,-0.43848
2.8633,5.5,-3.1875,2.1875,0.015137,-0.0053711,0.98975,0.20508,0.023438,-0.43848
2.8672,6,-4.1875,1.25,0.015137,0.0097656,0.98975,0.20996,0.018555,-0.44385
2.8711,7,-4.625,0.5625,0.019043,-0.0053711,0.98975,0.20996,0.018555,-0.44385
2.875,7.875,-4.9375,0.3125,-0.0078125,-0.0092773,1.0322,0.20996,0.018555,-0.44385
2.8789,7.875,-4.125,0.125,0,-0.020996,1.0015,0.20996,0.018555,-0.44385
2.8828,7.6875,-3,0,-0.02002,-0.01709,1.0283,0.20996,0.018555,-0.44385
2.8867,7.9375,-0.0625,1.0625,-0.027832,-0.036621,1.0552,0.20996,0.018555,-0.44385
2.8906,7.3125,4.1875,2.5625,-0.012207,-0.036621,1.0708,0.20996,0.018555,-0.44385
2.8945,4.8125,7.625,5.375,-0.023926,-0.052246,1.0166,0.21777,0.020996,-0.43848
2.8984,6.5625,6.625,6.875,-0.031738,-0.024902,1.0054,0.21777,0.020996,-0.43848
2.9023,7.6875,7.0625,6.4375,0,-0.040527,1.0205,0.21777,0.020996,-0.43848
2.9062,7.625,6.875,5.875,0.01123,-0.067871,0.98193,0.21484,0.0087891,-0.44385
2.9102,7.4375,6.3125,6.5,-0.012207,-0.063965,0.97412,0.21484,0.0087891,-0.44385
2.9141,7.875,6.8125,7.8125,-0.016113,-0.067871,1.0127,0.21484,0.0087891,-0.44385
2.918,8,8.3125,10.25,-0.012207,-0.067871,1.0361,0.21484,0.0087891,-0.44385
2.9219,8.5,9.4375,12.188,-0.02002,-0.083496,1.0127,0.2251,0.0087891,-0.44141
2.9258,9.0625,9.875,13.125,-0.016113,-0.063965,0.97412,0.2251,0.0087891,-0.44141
2.9297,8.6875,10.5,13.25,-0.0039062,-0.040527,0.98584,0.2251,0.0087891,-0.44141
2.9336,8.625,10.312,13.688,-0.02002,-0.060059,0.99756,0.22021,0.013672,-0.44141
2.9375,9.4375,9.25,13,-0.043457,-0.0053711,1.0244,0.22021,0.013672,-0.44141
2.9414,10.438,9.875,11.812,-0.083008,-0.032715,0.98975,0.22021,0.013672,-0.44141
2.9453,7.25,20.562,6.8125,0,0.0058594,1.1597,0.22021,0.013672,-0.44141
2.9492,9.6875,22.875,4.6875,-0.02002,0.044434,0.9707,0.22021,0.013672,-0.44141
2.9531,15.188,15.25,2.5,0.035156,0.087402,0.92041,0.22021,0.013672,-0.44141
2.957,13.25,12.5,0.375,0.022949,0.025391,0.93555,0.22021,0.013672,-0.44141
2.9609,12.375,7.25,-0.1875,0.019043,0.0097656,0.97803,0.21484,0.0087891,-0.43604
2.9648,10.75,6.8125,-1.5,0.0073242,0.0097656,1.0093,0.21484,0.0087891,-0.43604
2.9688,10.125,8.875,-2.0625,-0.039551,-0.028809,1.0322,0.21484,0.0087891,-0.43604
2.9727,9.1875,11.875,-1.0625,-0.035645,0.0019531,1.0244,0.2124,0.013672,-0.44385
2.9766,8.4375,14.5,-1.6875,-0.18604,-0.095215,1.0127,0.2124,0.013672,-0.44385
2.9805,6.625,22.188,-6.25,0.0073242,0.056152,1.0361,0.2124,0.013672,-0.44385
2.9844,14.938,16.688,-8.5625,0.026855,0.087402,0.98584,0.2124,0.013672,-0.44385
2.9883,18.438,9.8125,-11.562,0.046875,0.091309,0.95117,0.21484,0.016113,-0.43604
2.9922,16.688,6.5625,-12.75,0.003418,0.017578,0.97803,0.21484,0.016113,-0.43604
2.9961,15.25,4.375,-10.188,-0.016113,-0.0053711,0.97803,0.21484,0.016113,-0.43604
3,14,5.125,-5.875,-0.023926,-0.07959,1.0513,0.22754,0.00097656,-0.44141
3.0039,13.062,6.6875,-1.125,-0.031738,-0.075684,1.0439,0.22754,0.00097656,-0.44141
3.0078,13.125,7.6875,1.5,-0.02002,-0.044434,1.0322,0.22754,0.00097656,-0.44141
3.0117,13.688,8.625,4.1875,-0.043457,-0.040527,1.0244,0.23291,0.013672,-0.43115
3.0156,15.562,7.9375,6.625,-0.016113,-0.013184,1.0205,0.23291,0.013672,-0.43115
3.0195,17.75,7.0625,7.125,0.0073242,0.0097656,1.0322,0.23291,0.013672,-0.43115
3.0234,18.938,6.625,7.1875,-0.016113,0.0097656,1.0166,0.23291,0.013672,-0.43115
3.0273,18.812,7.3125,8.6875,-0.035645,-0.01709,1.0322,0.22754,0.01123,-0.43848
3.0312,19.688,8.5625,12.125,-0.05957,-0.028809,1.0283,0.22754,0.01123,-0.43848
3.0352,21.125,9.4375,14.188,-0.05957,-0.020996,1.0322,0.22754,0.01123,-0.43848
3.0391,23.125,10.125,15,-0.047363,-0.020996,1.0244,0.23047,0.0087891,-0.43848
3.043,26.062,10.062,14.375,-0.031738,0.017578,1.0322,0.23047,0.0087891,-0.43848
3.0469,30.125,10.25,13.5,-0.027832,0.025391,1.0127,0.23047,0.0087891,-0.43848
3.0508,35.125,9.6875,13.062,-0.035645,0.021484,1.0127,0.23047,0.0087891,-0.43848
3.0547,40.188,9.5,12.188,-0.027832,0.044434,1.0361,0.23047,0.0087891,-0.43848
3.0586,45.25,10.062,11.438,-0.043457,0.033203,1.0591,0.23047,0.0087891,-0.43848
3.0625,50.188,10.625,12.25,-0.071289,0.037109,1.0322,0.23047,0.0087891,-0.43848
3.0664,52.312,11.312,13.562,-0.071289,-0.0053711,1.0479,0.22021,-0.0058594,-0.44385
3.0703,54.125,12.188,14.625,-0.05957,0.0097656,1.0205,0.22021,-0.0058594,-0.44385
3.0742,55.188,12.75,14.875,-0.039551,0.04834,1.0361,0.22021,-0.0058594,-0.44385
3.0781,57.312,13.375,14.375,-0.05957,0.025391,1.0244,0.23047,-0.0058594,-0.43604
3.082,58.625,14.438,14.562,-0.05957,0.029297,1.0283,0.23047,-0.0058594,-0.43604
3.0859,59.625,14.375,14.812,-0.055664,0.029297,1.04,0.23047,-0.0058594,-0.43604
3.0898,61.5,15.062,14.875,-0.05957,0.041016,1.0244,0.23047,-0.0058594,-0.43604
3.0938,63,15.625,15.562,-0.043457,0.025391,1.0093,0.23291,-0.0058594,-0.43604
3.0977,64.438,16.375,15.625,-0.055664,0.056152,1.0322,0.23291,-0.0058594,-0.43604
3.1016,66.375,16.75,15.938,-0.05127,0.056152,1.0361,0.23291,-0.0058594,-0.43604
3.1055,67.062,17.125,16.062,-0.047363,0.063965,1.0205,0.23291,-0.025879,-0.43115
3.1094,68.375,17.375,16.125,-0.047363,0.071777,1.0322,0.23291,-0.025879,-0.43115
3.1133,68.938,15.875,15.875,-0.035645,0.067871,0.98584,0.23291,-0.025879,-0.43115
3.1172,68.875,14.875,14.188,-0.012207,0.075684,1.0015,0.23291,-0.025879,-0.43115
3.1211,67.625,13.5,12.875,-0.035645,0.095215,0.9707,0.23291,-0.025879,-0.43115
3.125,67.312,10.625,9.375,-0.0078125,0.11084,0.98193,0.23291,-0.025879,-0.43115
3.1289,67.688,8.25,6.75,-0.027832,0.095215,0.9707,0.23291,-0.025879,-0.43115
3.1328,68.125,5.0625,5.9375,-0.023926,0.087402,1.0015,0.23291,-0.038086,-0.43848
3.1367,68.5,2.625,6.125,-0.043457,0.07959,1.0093,0.23291,-0.038086,-0.43848
3.1406,68.875,1.5625,6.8125,-0.067383,0.075684,1.0015,0.23291,-0.038086,-0.43848
3.1445,70.625,0.75,8.125,-0.055664,0.060059,1.0093,0.24072,-0.042969,-0.43848
3.1484,73,0,10.125,-0.071289,0.063965,1.04,0.24072,-0.042969,-0.43848
3.1523,77.562,-1.1875,12.062,-0.083008,0.04834,1.04,0.24072,-0.042969,-0.43848
3.1562,82.562,-1.5,14.125,-0.05957,0.095215,1.0479,0.24072,-0.042969,-0.43848
3.1602,85.812,-2.6875,15.5,-0.035645,0.10693,1.0283,0.22754,-0.058105,-0.43115
3.1641,88.188,-3.625,17.438,-0.05127,0.11084,1.0166,0.22754,-0.058105,-0.43115
3.168,90.438,-5.5625,18.438,-0.047363,0.13037,1.0322,0.22754,-0.058105,-0.43115
3.1719,91.938,-8.125,20.438,-0.023926,0.11865,0.9668,0.23291,-0.04834,-0.44141
3.1758,91.562,-12.062,22.438,-0.012207,0.07959,0.95898,0.23291,-0.04834,-0.44141
3.1797,89.25,-14.438,19.812,0.0073242,0.16943,0.99365,0.23291,-0.04834,-0.44141
3.1836,88.188,-15.875,16.688,0.019043,0.18115,1.0093,0.23047,-0.070312,-0.42871
3.1875,87.688,-16.938,18.875,-0.031738,0.13428,1.0015,0.23047,-0.070312,-0.42871
3.1914,85.5,-17.125,18.5,-0.016113,0.11084,1.0054,0.23047,-0.070312,-0.42871
3.1953,81.75,-17.938,20.812,-0.047363,0.27832,0.9668,0.23047,-0.070312,-0.42871
3.1992,79.875,-17.625,16.812,-0.02002,0.2666,0.99365,0.23291,-0.083008,-0.43115
3.2031,79.188,-17.5,16.75,-0.035645,0.21191,1.0015,0.23291,-0.083008,-0.43115
3.207,77.875,-17.312,17,-0.027832,0.23145,1.0244,0.23291,-0.083008,-0.43115
3.2109,75.438,-18.812,17.125,-0.031738,0.19678,0.98584,0.22266,-0.095215,-0.42871
3.2148,74.25,-20.062,17.375,0.003418,0.22363,0.9668,0.22266,-0.095215,-0.42871
3.2188,73.812,-20.312,17,-0.023926,0.20801,0.98584,0.22266,-0.095215,-0.42871
3.2227,74.75,-20.562,16.875,-0.027832,0.23145,1.0093,0.22266,-0.095215,-0.42871
3.2266,76.25,-21.375,17.062,-0.0039062,0.22363,0.98584,0.22266,-0.095215,-0.42871
3.2305,78.125,-23.438,17.375,-0.0039062,0.23145,0.9668,0.22266,-0.095215,-0.42871
3.2344,79.5,-25.375,16.562,0.003418,0.21191,0.95898,0.22266,-0.095215,-0.42871
3.2383,81.375,-27.562,15.562,-0.012207,0.24316,0.9707,0.22266,-0.11035,-0.42334
3.2422,82.75,-29.125,14.25,0.003418,0.23145,0.95508,0.22266,-0.11035,-0.42334
3.2461,84.562,-30.625,12.062,0.030762,0.24707,0.95898,0.22266,-0.11035,-0.42334
3.25,86.438,-32.188,9.4375,0.022949,0.25098,0.95117,0.21777,-0.11523,-0.43848
3.2539,87.812,-33.188,6.5625,0.046875,0.24316,0.97412,0.21777,-0.11523,-0.43848
3.2578,90.438,-35,2,0.0625,0.27051,0.90479,0.21777,-0.11523,-0.43848
3.2617,93.375,-37.5,-1.8125,0.058594,0.2666,0.93213,0.21777,-0.11523,-0.43848
3.2656,97.875,-40.438,-5.9375,0.026855,0.2627,0.93213,0.22021,-0.12012,-0.43115
3.2695,103.56,-42.312,-9.9375,0.050781,0.24316,0.93555,0.22021,-0.12012,-0.43115
3.2734,108.44,-44.5,-14.188,0.066406,0.28613,0.93945,0.22021,-0.12012,-0.43115
3.2773,112.44,-44.312,-18.75,0.050781,0.3252,0.93555,0.2124,-0.12793,-0.4209
3.2812,117.25,-44.75,-23.188,0.035156,0.31348,0.95898,0.2124,-0.12793,-0.4209
3.2852,124.5,-44.562,-26,0.074707,0.36035,0.95117,0.2124,-0.12793,-0.4209
3.2891,118.69,-38.375,-31.812,0.050781,0.41846,0.98584,0.2124,-0.12793,-0.4209
3.293,118.31,-37.688,-33.75,0.050781,0.37207,0.97412,0.2124,-0.12793,-0.4209
3.2969,118.31,-34.188,-33.438,0.030762,0.39502,0.98193,0.2124,-0.12793,-0.4209
3.3008,119.12,-31.625,-31.375,0.022949,0.37939,0.99365,0.2124,-0.12793,-0.4209
3.3047,119.62,-28.875,-27.812,0.030762,0.37207,0.98584,0.19971,-0.15771,-0.41846
3.3086,118.12,-27.312,-24.562,0.050781,0.37939,0.96289,0.19971,-0.15771,-0.41846
3.3125,115.62,-26.438,-21.438,0.046875,0.36426,0.95898,0.19971,-0.15771,-0.41846
3.3164,113.5,-26.25,-19.062,0.050781,0.37207,0.95898,0.19482,-0.16748,-0.41602
3.3203,113,-25.875,-17.375,0.066406,0.34473,0.92041,0.19482,-0.16748,-0.41602
3.3242,114,-25.562,-15.812,0.0625,0.34082,0.93213,0.19482,-0.16748,-0.41602
3.3281,115.56,-26.5,-12.438,0.10596,0.32129,0.9126,0.19482,-0.16748,-0.41602
3.332,116.88,-27.5,-14.25,0.039062,0.34082,0.88574,0.19727,-0.16748,-0.4209
3.3359,118.19,-29.625,-14.875,0.086426,0.34863,0.89697,0.19727,-0.16748,-0.4209
3.3398,116.38,-32.438,-15,0.090332,0.36816,0.89355,0.19727,-0.16748,-0.4209
3.3438,116.19,-34.562,-15.688,0.08252,0.37549,0.88965,0.19971,-0.18506,-0.4082
3.3477,116.56,-37.312,-16.75,0.058594,0.37939,0.89355,0.19971,-0.18506,-0.4082
3.3516,115.88,-38.375,-17.312,0.058594,0.3833,0.92041,0.19971,-0.18506,-0.4082
3.3555,114.25,-38.75,-16.5,0.035156,0.36035,0.90088,0.18457,-0.19238,-0.4082
3.3594,111,-39.375,-16.188,0.066406,0.41846,0.89355,0.18457,-0.19238,-0.4082
3.3633,106.56,-40.375,-16.812,0.054688,0.42236,0.89697,0.18457,-0.19238,-0.4082
3.3672,104.06,-41.688,-17.125,0.066406,0.40674,0.89355,0.18457,-0.19238,-0.4082
3.3711,104.44,-42.562,-17.375,0.058594,0.41846,0.90479,0.19238,-0.21484,-0.39795
3.375,108,-43.125,-18.625,0.054688,0.44189,0.87793,0.19238,-0.21484,-0.39795
3.3789,114.31,-44,-19.875,0.039062,0.43018,0.90479,0.19238,-0.21484,-0.39795
3.3828,121.31,-44.375,-22.312,0.058594,0.44971,0.89355,0.18213,-0.20508,-0.40332
3.3867,127.69,-43.875,-25.75,0.066406,0.45752,0.87793,0.18213,-0.20508,-0.40332
3.3906,133.19,-44.5,-28.5,0.058594,0.47705,0.85498,0.18213,-0.20508,-0.40332
3.3945,137.5,-44.75,-29.812,0.042969,0.50439,0.8623,0.18213,-0.20508,-0.40332
3.3984,139.5,-44.062,-29.625,0.039062,0.52393,0.87012,0.18213,-0.20508,-0.40332
3.4023,139.69,-43.125,-28.562,0.030762,0.58984,0.83545,0.18213,-0.20508,-0.40332
3.4062,137.56,-41.812,-27.625,0.035156,0.58594,0.82764,0.18213,-0.20508,-0.40332
3.4102,135.25,-40.125,-26.125,0.0073242,0.60547,0.84717,0.18457,-0.23975,-0.39307
3.4141,133.94,-36.875,-25.562,0,0.625,0.8623,0.18457,-0.23975,-0.39307
3.418,133.25,-32.875,-24.625,0.01123,0.61328,0.87793,0.18457,-0.23975,-0.39307
3.4219,132.12,-28.188,-23.562,0.003418,0.62891,0.89355,0.17676,-0.25732,-0.39062
3.4258,130.62,-23.625,-23.25,0.019043,0.61719,0.87012,0.17676,-0.25732,-0.39062
3.4297,131.31,-20.875,-23.125,-0.016113,0.60938,0.84717,0.17676,-0.25732,-0.39062
3.4336,131.56,-19.312,-24.562,0.019043,0.60547,0.79297,0.17676,-0.25732,-0.39062
3.4375,132.88,-19.625,-26.312,0.078613,0.63672,0.7583,0.18213,-0.25244,-0.39062
3.4414,134.75,-20.875,-29.375,0.042969,0.63281,0.74268,0.18213,-0.25244,-0.39062
3.4453,137.62,-21.75,-31.938,0.042969,0.64844,0.7583,0.18213,-0.25244,-0.39062
3.4492,141.25,-20.125,-32.688,0.030762,0.63281,0.78906,0.16943,-0.26465,-0.37012
3.4531,143.62,-15.438,-31.75,0.0073242,0.62891,0.78906,0.16943,-0.26465,-0.37012
3.457,144.5,-8.75,-29.625,0.003418,0.63281,0.8125,0.16943,-0.26465,-0.37012
3.4609,141.06,-0.875,-26.312,0.015137,0.63281,0.78516,0.18457,-0.27441,-0.35986
3.4648,136.38,5.125,-22.5,0.026855,0.64453,0.78125,0.18457,-0.27441,-0.35986
3.4688,132.38,11,-18.125,0.046875,0.66406,0.76221,0.18457,-0.27441,-0.35986
3.4727,128.12,16.438,-14,0.050781,0.6875,0.76611,0.18457,-0.27441,-0.35986
3.4766,122.56,20.875,-9.6875,0.022949,0.71436,0.74268,0.17432,-0.28955,-0.36523
3.4805,116.56,21.625,-6.9375,0.074707,0.73389,0.67334,0.17432,-0.28955,-0.36523
3.4844,111.06,19.5,-4.625,0.070312,0.74951,0.66553,0.17432,-0.28955,-0.36523
3.4883,106.31,16.062,-3.125,0.074707,0.76123,0.66211,0.17676,-0.29199,-0.34766
3.4922,103.94,12.875,-1.875,0.098145,0.79639,0.66553,0.17676,-0.29199,-0.34766
3.4961,103.06,10.938,-0.4375,0.078613,0.78076,0.6543,0.17676,-0.29199,-0.34766
3.5,103.31,9.6875,0.6875,0.039062,0.78076,0.66211,0.17676,-0.29199,-0.34766
3.5039,104.06,10,2.5,0.039062,0.78076,0.66553,0.16943,-0.30713,-0.34766
3.5078,105,10.5,3.3125,0.035156,0.75342,0.6543,0.16943,-0.30713,-0.34766
3.5117,105.38,11,3.9375,0.035156,0.75342,0.68506,0.16943,-0.30713,-0.34766
3.5156,105.5,11.938,3.625,0.035156,0.76514,0.69287,0.18457,-0.30957,-0.32959
3.5195,105.12,14.562,3.875,0.026855,0.74951,0.67334,0.18457,-0.30957,-0.32959
3.5234,105,18.75,5.0625,0.01123,0.75342,0.71582,0.18457,-0.30957,-0.32959
3.5273,103.88,23.938,7.25,0,0.76123,0.69678,0.17432,-0.31689,-0.32471
3.5312,101,28.312,9.625,0.019043,0.76514,0.67725,0.17432,-0.31689,-0.32471
3.5352,96.938,30.562,11.812,0.042969,0.77686,0.63867,0.17432,-0.31689,-0.32471
3.5391,93.188,31.625,12.312,0.054688,0.77295,0.63477,0.17432,-0.31689,-0.32471
3.543,95.312,30.75,12.562,0.050781,0.76123,0.63086,0.17676,-0.33447,-0.31934
3.5469,101,30.125,11.75,0.050781,0.74951,0.604,0.17676,-0.33447,-0.31934
3.5508,108.56,29.375,11.25,0.050781,0.76514,0.62354,0.17676,-0.33447,-0.31934
3.5547,115.38,29.375,11.938,0.042969,0.76904,0.61963,0.18701,-0.34424,-0.30957
3.5586,120.06,29.75,12.438,0.058594,0.77686,0.60791,0.18701,-0.34424,-0.30957
3.5625,123.5,29.125,12.688,0.0625,0.78857,0.58105,0.18701,-0.34424,-0.30957
3.5664,125.62,27.812,12.875,0.039062,0.79639,0.55371,0.18701,-0.34424,-0.30957
3.5703,127.25,24.312,12.75,0.0625,0.81201,0.49609,0.18701,-0.34424,-0.30957
3.5742,127.69,19.688,11.125,0.070312,0.83154,0.46143,0.18701,-0.34424,-0.30957
3.5781,127.62,14.5,8.8125,0.086426,0.87061,0.48047,0.18701,-0.34424,-0.30957
3.582,127.44,11.062,6.9375,0.0625,0.83545,0.48047,0.1792,-0.34424,-0.28174
3.5859,128.44,9.0625,4.25,0.054688,0.84326,0.54248,0.1792,-0.34424,-0.28174
3.5898,130.12,9.3125,3.6875,0.035156,0.85889,0.55371,0.1792,-0.34424,-0.28174
3.5938,133.31,11.438,4.125,0.019043,0.82764,0.58105,0.19971,-0.35938,-0.27148
3.5977,135.75,15.562,4.375,0.019043,0.78857,0.59229,0.19971,-0.35938,-0.27148
3.6016,139.12,19.312,5.0625,0.01123,0.81201,0.55762,0.19971,-0.35938,-0.27148
3.6055,141.56,22.438,5,0.039062,0.80029,0.53857,0.19971,-0.35938,-0.27148
3.6094,142.69,25,4.875,0.058594,0.82373,0.48828,0.18945,-0.37158,-0.26367
3.6133,141.25,25.938,4.4375,0.066406,0.82764,0.47656,0.18945,-0.37158,-0.26367
3.6172,138.44,24.438,4.6875,0.074707,0.83154,0.46143,0.18945,-0.37158,-0.26367
3.6211,133.12,22.125,4.1875,0.086426,0.83936,0.45361,0.1792,-0.38184,-0.23584
3.625,126.75,19.75,3.625,0.094238,0.84326,0.43408,0.1792,-0.38184,-0.23584
3.6289,119.88,18.062,4.125,0.086426,0.81592,0.4458,0.1792,-0.38184,-0.23584
3.6328,115.88,16.438,5.8125,0.070312,0.82764,0.46533,0.18213,-0.37891,-0.24365
3.6367,116.12,15.438,7.4375,0.0625,0.83154,0.47656,0.18213,-0.37891,-0.24365
3.6406,117.44,15.125,11.125,0.050781,0.82764,0.47266,0.18213,-0.37891,-0.24365
3.6445,119.69,15.438,14.375,0.046875,0.83936,0.45752,0.18213,-0.37891,-0.24365
3.6484,120.75,15.562,16.438,0.035156,0.84717,0.46143,0.18701,-0.37891,-0.23096
3.6523,120.88,14.688,17.5,0.046875,0.84717,0.42676,0.18701,-0.37891,-0.23096
3.6562,119.31,12.562,18.562,0.058594,0.86279,0.39551,0.18701,-0.37891,-0.23096
3.6602,118.06,9.0625,20.312,-0.10693,0.81592,0.3418,0.18945,-0.39404,-0.21289
3.6641,114.69,11.438,19.25,0.15723,0.91309,0.42285,0.18945,-0.39404,-0.21289
3.668,120.38,2.4375,19.812,0.030762,0.94043,0.33008,0.18945,-0.39404,-0.21289
3.6719,115.81,0.625,19.938,0.050781,0.93262,0.31836,0.18945,-0.39404,-0.21289
3.6758,114.19,-3.0625,18.5,0.08252,0.9248,0.31104,0.18457,-0.40918,-0.20312
3.6797,110.94,-7.375,17.375,0.042969,0.9248,0.31494,0.18457,-0.40918,-0.20312
3.6836,109.12,-9.3125,15.688,0.039062,0.9248,0.33789,0.18457,-0.40918,-0.20312
3.6875,109.19,-10.062,14.438,0.026855,0.93262,0.34961,0.19238,-0.39893,-0.19531
3.6914,107.75,-8.5,13.812,0.035156,0.9209,0.37256,0.19238,-0.39893,-0.19531
3.6953,107.12,-5.6875,12.25,0.046875,0.9209,0.39551,0.19238,-0.39893,-0.19531
3.6992,105.81,-2.3125,10.938,0.039062,0.91699,0.39209,0.18457,-0.42139,-0.18262
3.7031,105.19,1.625,9.375,0.035156,0.91699,0.34961,0.18457,-0.42139,-0.18262
3.707,106,3.9375,7.5,0.035156,0.89746,0.35693,0.18457,-0.42139,-0.18262
3.7109,105.25,4.625,5.875,0.058594,0.91699,0.30713,0.18457,-0.42139,-0.18262
3.7148,102,5,4.6875,0.066406,0.91699,0.25684,0.18701,-0.41895,-0.16748
3.7188,97.875,3.6875,4.125,0.058594,0.90137,0.28369,0.18701,-0.41895,-0.16748
3.7227,92.875,0.9375,4.3125,0.070312,0.94434,0.23779,0.18701,-0.41895,-0.16748
3.7266,87.875,-2.625,3.875,0.078613,0.97559,0.24121,0.17188,-0.43164,-0.1626
3.7305,84.312,-7.375,3.9375,0.066406,0.93652,0.23779,0.17188,-0.43164,-0.1626
3.7344,81.75,-11.5,3.75,0.074707,0.96387,0.23389,0.17188,-0.43164,-0.1626
3.7383,81,-15.312,4.5625,0.039062,0.97168,0.22998,0.17188,-0.43164,-0.1626
3.7422,81.438,-18.75,5.875,0.066406,0.95605,0.23389,0.17188,-0.43164,-0.1626
3.7461,81.75,-21.25,7.1875,0.042969,0.94434,0.24512,0.17188,-0.43164,-0.1626
3.75,82.75,-21.125,7.6875,0.046875,0.96777,0.27637,0.17188,-0.43164,-0.1626
3.7539,83.938,-19.125,8,0.022949,0.99121,0.27246,0.1792,-0.43164,-0.15234
3.7578,85.125,-15.812,8.125,0.022949,0.97168,0.26855,0.1792,-0.43164,-0.15234
3.7617,85.688,-13.062,8.3125,0.019043,0.96387,0.25293,0.1792,-0.43164,-0.15234
3.7656,86.938,-11.438,7.125,0.039062,0.96387,0.22217,0.18213,-0.42139,-0.13477
3.7695,87.688,-11,4.75,0.050781,0.97949,0.21045,0.18213,-0.42139,-0.13477
3.7734,80.312,-2.0625,6.9375,0.090332,0.95996,0.22607,0.18213,-0.42139,-0.13477
3.7773,92.75,-7.875,-2.125,0.019043,0.97949,0.19922,0.18213,-0.42139,-0.13477
3.7812,93.625,-8.625,-1.0625,0.058594,0.97949,0.20654,0.17432,-0.43652,-0.14209
3.7852,96.75,-7.125,-2.875,0.042969,0.94824,0.16406,0.17432,-0.43652,-0.14209
3.7891,101.31,-9.8125,-3.0625,0.058594,0.95996,0.1333,0.17432,-0.43652,-0.14209
3.793,104.12,-11.438,-3,0.054688,0.94824,0.15674,0.17188,-0.43408,-0.11914
3.7969,106.81,-14.938,-4.125,0.08252,0.9873,0.14502,0.17188,-0.43408,-0.11914
3.8008,106.69,-19.625,-5.1875,0.0625,0.99902,0.10254,0.17188,-0.43408,-0.11914
3.8047,104.56,-23.062,-5.8125,0.090332,0.99902,0.12207,0.1792,-0.44385,-0.11182
3.8086,101.25,-23.75,-4.875,0.086426,0.99512,0.13721,0.1792,-0.44385,-0.11182
3.8125,98.875,-24.125,-4,0.08252,1.0029,0.13721,0.1792,-0.44385,-0.11182
3.8164,95.562,-21.625,-2.25,0.0625,1.0068,0.15283,0.1792,-0.44385,-0.11182
3.8203,90.875,-16.625,-0.3125,0.042969,0.99902,0.17578,0.17432,-0.43652,-0.104
3.8242,88.5,-10.188,1.6875,0.026855,0.96777,0.17969,0.17432,-0.43652,-0.104
3.8281,87.188,-4,4.125,0.035156,0.97168,0.19922,0.17432,-0.43652,-0.104
3.832,87.688,1.8125,4.25,0.035156,0.96777,0.19531,0.16943,-0.45117,-0.088867
3.8359,89.812,7.5,5.125,0.019043,0.94824,0.17969,0.16943,-0.45117,-0.088867
3.8398,94.438,13.25,6.3125,0.030762,0.9248,0.19141,0.16943,-0.45117,-0.088867
3.8438,99.062,17.75,7.125,0.039062,0.94824,0.16797,0.16943,-0.45117,-0.088867
3.8477,102.38,22.25,7.6875,0.046875,0.94434,0.16064,0.16943,-0.45117,-0.088867
3.8516,105,25.125,6.8125,0.074707,0.95605,0.10254,0.16943,-0.45117,-0.088867
3.8555,104.94,27.562,5.875,0.074707,0.94824,0.12207,0.16943,-0.45117,-0.088867
3.8594,102.38,29.875,3.8125,0.074707,0.96777,0.094727,0.17432,-0.44629,-0.065918
3.8633,98,30.375,2.5625,0.086426,0.96387,0.094727,0.17432,-0.44629,-0.065918
3.8672,92.25,30.688,2,0.066406,0.9873,0.075684,0.17432,-0.44629,-0.065918
3.8711,86,30.625,1.4375,0.058594,0.97168,0.075684,0.18701,-0.44873,-0.058594
3.875,77.562,30.312,1.8125,0.08252,0.97168,0.071777,0.18701,-0.44873,-0.058594
3.8789,70.812,29.25,2.0625,0.066406,0.95996,0.060059,0.18701,-0.44873,-0.058594
3.8828,66.375,28.25,3.3125,0.054688,0.96387,0.075684,0.18701,-0.44873,-0.058594
3.8867,65,29.312,4,0.050781,0.95215,0.086914,0.17432,-0.44629,-0.04834
3.8906,65.625,31.625,3.75,0.035156,0.94824,0.083496,0.17432,-0.44629,-0.04834
3.8945,66.562,33.938,3.25,0.042969,0.97559,0.041016,0.17432,-0.44629,-0.04834
3.8984,68.188,35.312,2.625,0.070312,0.9873,0.04834,0.17188,-0.45361,-0.041016
3.9023,68.75,34.25,3.0625,0.066406,0.97949,-0.012695,0.17188,-0.45361,-0.041016
3.9062,69,32.25,2.875,0.058594,0.9834,-0.020508,0.17188,-0.45361,-0.041016
3.9102,68.25,29.562,3.1875,0.046875,0.9873,-0.031738,0.17188,-0.45361,-0.041016
3.9141,67.25,26.438,3.3125,0.0625,1.0107,-0.016602,0.17188,-0.45361,-0.041016
3.918,66.25,23.5,3.3125,0.035156,0.9873,-0.016602,0.17188,-0.45361,-0.041016
3.9219,66.25,20.625,2.8125,0.050781,1.0068,-0.066895,0.17188,-0.45361,-0.041016
3.9258,66.938,18.25,0.8125,0.054688,0.9834,-0.035645,0.17676,-0.44629,-0.030762
3.9297,66.312,17.188,0.4375,0.039062,0.99121,-0.016602,0.17676,-0.44629,-0.030762
3.9336,65.875,17.812,-0.6875,0.058594,0.97559,-0.00097656,0.17676,-0.44629,-0.030762
3.9375,66.062,20,-1.8125,0.050781,0.9834,0.025391,0.18213,-0.45898,-0.022949
3.9414,65.438,22.438,-3.25,0.050781,0.99121,0.041016,0.18213,-0.45898,-0.022949
3.9453,63.5,25,-4.625,0.046875,0.97949,0.013672,0.18213,-0.45898,-0.022949
3.9492,60.312,26.875,-6.875,0.08252,0.99902,-0.0087891,0.18213,-0.45898,-0.022949
3.9531,55.062,28.688,-9.1875,0.054688,1.0146,0.0024414,0.18701,-0.45361,-0.012695
3.957,49,28.75,-11.312,0.066406,1.0415,-0.0048828,0.18701,-0.45361,-0.012695
3.9609,41.562,29.5,-14.188,0.054688,1.0146,-0.012695,0.18701,-0.45361,-0.012695
3.9648,37.438,30,-16,0.019043,1.0146,-0.00097656,0.18457,-0.44873,-0.00048828
3.9688,35.312,32,-16.625,0.030762,1.0264,0.013672,0.18457,-0.44873,-0.00048828
3.9727,33.875,35.438,-17.5,0.022949,1.0107,0.033203,0.18457,-0.44873,-0.00048828
3.9766,33,38.812,-17.625,0.022949,0.9873,0.021484,0.1792,-0.45654,-0.0053711
3.9805,33.188,40.938,-17.5,0.019043,0.9873,0.013672,0.1792,-0.45654,-0.0053711
3.9844,34.875,40.688,-17.5,0.035156,0.9873,-0.020508,0.1792,-0.45654,-0.0053711
3.9883,35.5,39.375,-17.125,0.058594,0.97949,-0.043457,0.1792,-0.45654,-0.0053711
3.9922,35.75,36.625,-17.312,0.042969,1.0029,-0.074219,0.19238,-0.46143,-0.00048828
3.9961,34.312,32.875,-16.938,0.046875,0.9873,-0.062988,0.19238,-0.46143,-0.00048828
4,31.812,28.688,-19.5,0.050781,0.99121,-0.078125,0.19238,-0.46143,-0.00048828
4.0039,30.312,24.562,-21.25,0.042969,1.0146,-0.097656,0.19238,-0.44385,0.0068359
4.0078,29.938,18.938,-20.562,0.042969,0.9873,-0.12061,0.19238,-0.44385,0.0068359
4.0117,29.062,15,-20.312,0.050781,0.99512,-0.089844,0.19238,-0.44385,0.0068359
4.0156,30,10.062,-23.25,0.022949,0.97949,-0.097656,0.19238,-0.44385,0.0068359
4.0195,31.438,6.5625,-24.062,0.058594,0.96777,-0.089844,0.19238,-0.44385,0.0068359
4.0234,31.875,5.375,-23.625,0.058594,0.96387,-0.10889,0.19238,-0.44385,0.0068359
4.0273,32.5,3.125,-23.125,0.050781,0.94434,-0.097656,0.19238,-0.44385,0.0068359
4.0312,34.188,0.5625,-22.75,0.042969,0.96777,-0.10156,0.18945,-0.43896,0.019531
4.0352,34.938,-2.6875,-22.438,0.050781,0.95605,-0.089844,0.18945,-0.43896,0.019531
4.0391,34.438,-5.25,-21.438,0.058594,0.9834,-0.082031,0.18945,-0.43896,0.019531
4.043,32.25,-7.4375,-20.188,0.050781,0.97949,-0.078125,0.19727,-0.44141,0.027344
4.0469,29.188,-9.1875,-18.688,0.042969,0.97949,-0.10547,0.19727,-0.44141,0.027344
4.0508,27.062,-10.562,-17.625,0.030762,0.95605,-0.089844,0.19727,-0.44141,0.027344
4.0547,25.5,-11.062,-16.625,0.035156,0.97949,-0.089844,0.19727,-0.44141,0.027344
4.0586,24.25,-10.75,-15.875,0.022949,0.97949,-0.082031,0.19727,-0.44629,0.01709
4.0625,24,-10.375,-14.875,0.030762,0.97949,-0.089844,0.19727,-0.44629,0.01709
4.0664,23.188,-10.375,-14.25,0.026855,0.97168,-0.09375,0.19727,-0.44629,0.01709
4.0703,23.125,-10.812,-13.5,0.026855,0.95996,-0.09375,0.18457,-0.44629,0.019531
4.0742,24.25,-11.812,-12.25,0.019043,0.97168,-0.097656,0.18457,-0.44629,0.019531
4.0781,26.625,-13.125,-11.75,0.035156,0.9834,-0.09375,0.18457,-0.44629,0.019531
4.082,27.5,-13.812,-11.5,0.035156,0.9834,-0.12061,0.18457,-0.44629,0.019531
4.0859,27.438,-14.5,-11.438,0.035156,0.99902,-0.13232,0.18457,-0.44629,0.019531
4.0898,25.75,-15.438,-11.188,0.026855,1.0186,-0.15918,0.18457,-0.44629,0.019531
4.0938,23.562,-16.125,-11.562,0.026855,1.0186,-0.14746,0.18457,-0.44629,0.019531
4.0977,21.812,-16.75,-11.75,0.019043,1.0381,-0.12451,0.19971,-0.44141,0.027344
4.1016,20.625,-17.375,-12.438,-0.0039062,1.0342,-0.13232,0.19971,-0.44141,0.027344
4.1055,19.5,-16.625,-13.438,0.019043,1.0342,-0.12061,0.19971,-0.44141,0.027344
4.1094,18.312,-15.5,-13.75,0,1.0303,-0.13232,0.20508,-0.44385,0.032227
4.1133,18,-14.438,-13.875,0.019043,0.99121,-0.078125,0.20508,-0.44385,0.032227
4.1172,17.5,-13.25,-14.125,0.019043,0.99121,-0.097656,0.20508,-0.44385,0.032227
4.1211,17.25,-11.562,-14.062,0.01123,0.99512,-0.09375,0.20508,-0.44385,0.032227
4.125,16.625,-9.8125,-13.688,0.030762,1.0146,-0.047363,0.20752,-0.43408,0.029785
4.1289,15.75,-8.0625,-13.312,0.015137,0.99902,-0.10889,0.20752,-0.43408,0.029785
4.1328,13.938,-6.75,-12.062,0.019043,0.9873,-0.089844,0.20752,-0.43408,0.029785
4.1367,11.875,-5.5,-11,0.026855,1.0029,-0.13232,0.20752,-0.44385,0.034668
4.1406,9.0625,-4.6875,-9.5,0.022949,0.99902,-0.12842,0.20752,-0.44385,0.034668
4.1445,7.0625,-5.25,-9.625,0.01123,0.97559,-0.10889,0.20752,-0.44385,0.034668
4.1484,4.6875,-5.25,-6.5,0.015137,0.9873,-0.12451,0.19971,-0.43408,0.034668
4.1523,2.6875,-4.125,-3.8125,-0.012207,0.96777,-0.10889,0.19971,-0.43408,0.034668
4.1562,3.625,-2.125,-2.1875,0.058594,1.0454,-0.089844,0.19971,-0.43408,0.034668
4.1602,8.9375,-7,-4.8125,0,0.99902,-0.09375,0.19971,-0.43408,0.034668
4.1641,9.5,-3.0625,-4.125,0.042969,0.99902,-0.1167,0.20752,-0.44385,0.037109
4.168,10.312,-2.25,-4.5625,0,0.9873,-0.10547,0.20752,-0.44385,0.037109
4.1719,10.062,-1.8125,-3.25,0.0073242,0.97559,-0.10889,0.20752,-0.44385,0.037109
4.1758,9.0625,-1.625,-3.4375,0.015137,0.97949,-0.14014,0.20508,-0.44385,0.040039
4.1797,8.9375,-1.25,-2.75,0.003418,0.97559,-0.11279,0.20508,-0.44385,0.040039
4.1836,9.4375,-0.75,-2.875,0.003418,0.97168,-0.1167,0.20508,-0.44385,0.040039
4.1875,10.25,0.1875,-3.25,0.0073242,0.97949,-0.12451,0.20508,-0.44385,0.040039
4.1914,11.375,1.5,-3.8125,-0.023926,1.0107,-0.12061,0.20508,-0.44385,0.040039
4.1953,12.625,3.3125,-5.0625,-0.02002,0.99121,-0.089844,0.20508,-0.44385,0.040039
4.1992,12.312,5.375,-5.5625,-0.016113,1.0068,-0.12451,0.20508,-0.44385,0.040039
4.2031,11.688,7.125,-5.9375,-0.02002,1.0029,-0.1167,0.20752,-0.43652,0.034668
4.207,10.25,8.875,-6.1875,-0.016113,1.0029,-0.089844,0.20752,-0.43652,0.034668
4.2109,8.5625,10.188,-5.625,-0.0078125,1.0146,-0.12061,0.20752,-0.43652,0.034668
4.2148,6.8125,10.812,-5.3125,-0.0078125,0.9873,-0.10889,0.20215,-0.43164,0.047363
4.2188,5,11.438,-5.125,-0.0078125,1.0342,-0.10889,0.20215,-0.43164,0.047363
4.2227,3.4375,11.5,-5.1875,-0.0078125,1.0225,-0.1167,0.20215,-0.43164,0.047363
4.2266,2.6875,10.75,-5.25,0.0073242,1.0186,-0.14404,0.20215,-0.43164,0.047363
4.2305,1.9375,10.188,-5.4375,-0.0078125,0.99121,-0.14404,0.20508,-0.43408,0.040039
4.2344,1.5625,8.875,-5.4375,0,0.9834,-0.15137,0.20508,-0.43408,0.040039
4.2383,0.9375,7.875,-5.4375,-0.0039062,1.0107,-0.13232,0.20508,-0.43408,0.040039
4.2422,0.0625,6.4375,-5.1875,-0.0039062,1.0029,-0.13623,0.2124,-0.43896,0.034668
4.2461,-0.8125,4.25,-5.125,0.003418,0.9873,-0.14404,0.2124,-0.43896,0.034668
4.25,-1.125,2.4375,-4.8125,0,0.99121,-0.15137,0.2124,-0.43896,0.034668
4.2539,-0.625,0.8125,-4.375,0,0.99902,-0.14014,0.2124,-0.43896,0.034668
4.2578,-1.125,-0.3125,-3.9375,-0.0078125,0.9834,-0.15918,0.2124,-0.43896,0.034668
4.2617,-1.625,-1,-3.8125,-0.02002,0.9834,-0.15137,0.2124,-0.43896,0.034668
4.2656,-2,-2.3125,-3.3125,-0.047363,0.96387,-0.12842,0.2124,-0.43896,0.034668
4.2695,-1.0625,-3.625,-2.875,-0.012207,0.97559,-0.13232,0.20996,-0.43652,0.04248
4.2734,-0.125,-4.25,-2.6875,-0.016113,0.9873,-0.14746,0.20996,-0.43652,0.04248
4.2773,-0.0625,-4.8125,-2.8125,-0.012207,0.99121,-0.15137,0.20996,-0.43652,0.04248
4.2812,-1,-5,-2.5,-0.012207,0.99902,-0.15918,0.21484,-0.43408,0.04248
4.2852,-1.75,-4.9375,-2.625,-0.016113,1.0029,-0.12061,0.21484,-0.43408,0.04248
4.2891,-1.625,-4.3125,-2.0625,-0.02002,1.0342,-0.12451,0.21484,-0.43408,0.04248
4.293,-1.6875,-3.6875,-2.1875,-0.02002,0.99902,-0.13232,0.21484,-0.43408,0.04248
4.2969,-1.5625,-3,-2.875,-0.012207,0.99902,-0.11279,0.21484,-0.43408,0.044922
4.3008,-2.4375,-2.0625,-3.5625,-0.02002,1.0186,-0.12451,0.21484,-0.43408,0.044922
4.3047,-3.8125,-1.6875,-4,-0.016113,1.0264,-0.13623,0.21484,-0.43408,0.044922
4.3086,-4.875,-1.375,-4.0625,-0.02002,1.0068,-0.15137,0.20996,-0.43652,0.037109
4.3125,-6.125,-1.0625,-4.5,-0.047363,1.0107,-0.12451,0.20996,-0.43652,0.037109
4.3164,-7,-1,-4.875,-0.02002,1.0415,-0.12061,0.20996,-0.43652,0.037109
4.3203,-7.5625,-0.625,-5.4375,-0.02002,1.0068,-0.13232,0.21777,-0.43652,0.027344
4.3242,-7.5625,-0.1875,-5.375,-0.016113,1.0381,-0.13623,0.21777,-0.43652,0.027344
4.3281,-6.6875,1.0625,-5.625,-0.031738,1.0146,-0.13623,0.21777,-0.43652,0.027344
4.332,-6.25,1.6875,-5.6875,-0.027832,1.0303,-0.12451,0.21777,-0.43652,0.027344
4.3359,-5.1875,2.1875,-5.375,-0.023926,0.99902,-0.12842,0.20996,-0.43164,0.032227
4.3398,-4.6875,1.625,-4.4375,-0.027832,0.99512,-0.12842,0.20996,-0.43164,0.032227
4.3438,-3.1875,1.375,-3.625,-0.016113,0.9834,-0.11279,0.20996,-0.43164,0.032227
4.3477,-1.625,1.9375,-2.875,-0.012207,0.97949,-0.085938,0.20996,-0.43408,0.034668
4.3516,-1.125,3.0625,-2.5,-0.0039062,1.0029,-0.10547,0.20996,-0.43408,0.034668
4.3555,-1.375,3.1875,-1.8125,-0.0078125,1.0107,-0.097656,0.20996,-0.43408,0.034668
4.3594,-2.3125,2.9375,-1.375,-0.016113,0.99121,-0.10547,0.20996,-0.43408,0.034668
4.3633,-3.1875,3.1875,-0.75,-0.02002,0.99902,-0.11279,0.20996,-0.43408,0.034668
4.3672,-3.625,3.75,0.125,-0.023926,1.0186,-0.10547,0.20996,-0.43408,0.034668
4.3711,-4.1875,4.625,0.9375,-0.016113,1.0029,-0.12451,0.20996,-0.43408,0.034668
4.375,-4.75,5.8125,0.875,-0.016113,0.99121,-0.10889,0.20996,-0.44385,0.034668
4.3789,-5,6.8125,0.875,-0.02002,1.0186,-0.12451,0.20996,-0.44385,0.034668
4.3828,-6.0625,6.625,0.375,-0.016113,0.99902,-0.15137,0.20996,-0.44385,0.034668
4.3867,-6.6875,6.5625,-0.0625,-0.02002,1.0107,-0.15918,0.21484,-0.43408,0.04248
4.3906,-7.5,5.8125,-0.3125,-0.012207,1.0146,-0.14404,0.21484,-0.43408,0.04248
4.3945,-8.9375,5.4375,-0.1875,-0.031738,1.0303,-0.14014,0.21484,-0.43408,0.04248
4.3984,-9.8125,4.9375,-0.0625,-0.012207,1.0264,-0.1748,0.21484,-0.43408,0.04248
4.4023,-10.438,4.625,0.4375,-0.02002,0.99121,-0.14404,0.22021,-0.42871,0.034668
4.4062,-10.625,3.8125,0.625,-0.02002,1.0029,-0.15918,0.22021,-0.42871,0.034668
4.4102,-10.125,3.0625,1.3125,-0.0039062,1.0068,-0.15137,0.22021,-0.42871,0.034668
4.4141,-9.5,1.75,1.75,-0.02002,1.0107,-0.14746,0.20996,-0.43408,0.034668
4.418,-10.312,0.4375,1.6875,-0.0078125,0.9834,-0.15918,0.20996,-0.43408,0.034668
4.4219,-10.812,-0.6875,2.125,0,0.99121,-0.15918,0.20996,-0.43408,0.034668
4.4258,-10.938,-1.5,2.375,-0.02002,1.0029,-0.12451,0.20996,-0.43408,0.034668
4.4297,-10.312,-1.375,2.4375,-0.0039062,0.9873,-0.12061,0.20996,-0.43408,0.034668
4.4336,-9.8125,-1.0625,2.5625,-0.027832,0.99512,-0.078125,0.20996,-0.43408,0.034668
4.4375,-8.8125,-0.625,2.5,-0.027832,0.99512,-0.097656,0.20996,-0.43408,0.034668
4.4414,-7.6875,-0.875,2.25,-0.012207,0.9873,-0.12451,0.2124,-0.43652,0.034668
4.4453,-6,-1.6875,1.9375,-0.0078125,1.0029,-0.1167,0.2124,-0.43652,0.034668
4.4492,-4.5,-1.8125,1.625,-0.035645,1.0107,-0.10889,0.2124,-0.43652,0.034668
4.4531,-3.875,-1.1875,1.3125,-0.012207,0.9873,-0.10547,0.2124,-0.43408,0.037109
4.457,-4.0625,0.125,1.125,-0.031738,1.0107,-0.089844,0.2124,-0.43408,0.037109
4.4609,-5.0625,1.1875,1.0625,0.003418,1.0186,-0.10547,0.2124,-0.43408,0.037109
4.4648,-7.3125,1.875,0.8125,-0.016113,1.0068,-0.12061,0.2124,-0.43408,0.037109
4.4688,-9.9375,2.3125,0.6875,-0.02002,0.99121,-0.12061,0.20508,-0.43652,0.037109
4.4727,-11.625,2.5625,0.75,-0.027832,1.0107,-0.10889,0.20508,-0.43652,0.037109
4.4766,-12.312,2.625,0.875,0,0.9873,-0.089844,0.20508,-0.43652,0.037109
4.4805,-11.812,2.4375,1.5625,-0.016113,0.9873,-0.11279,0.20752,-0.43652,0.029785
4.4844,-10.312,2.0625,1.9375,-0.016113,0.9873,-0.10889,0.20752,-0.43652,0.029785
4.4883,-8.0625,0.875,2.125,-0.0078125,0.97949,-0.09375,0.20752,-0.43652,0.029785
4.4922,-6.9375,0.3125,2.25,0.003418,0.96777,-0.082031,0.20996,-0.43652,0.034668
4.4961,-6.125,-0.4375,2.6875,-0.0039062,0.97949,-0.097656,0.20996,-0.43652,0.034668
4.5,-6.375,-1.5625,2.625,-0.0039062,0.9873,-0.10547,0.20996,-0.43652,0.034668
4.5039,-6.4375,-2.5625,2.6875,-0.012207,0.97559,-0.10889,0.20996,-0.43652,0.034668
4.5078,-6.9375,-2.9375,2.8125,-0.02002,1.0029,-0.09375,0.21777,-0.43652,0.032227
4.5117,-6.9375,-3.5625,2.75,-0.023926,0.99121,-0.10156,0.21777,-0.43652,0.032227
4.5156,-6.9375,-4,2.6875,-0.02002,1.0029,-0.12061,0.21777,-0.43652,0.032227
4.5195,-7.0625,-3.75,2.5,-0.0078125,1.0186,-0.10156,0.20752,-0.43896,0.034668
4.5234,-7.625,-3.8125,1.625,-0.02002,1.0225,-0.09375,0.20752,-0.43896,0.034668
4.5273,-7.6875,-3.4375,1.1875,-0.012207,1.0107,-0.089844,0.20752,-0.43896,0.034668
4.5312,-7.375,-2.5625,0.5,-0.0039062,0.9834,-0.078125,0.20752,-0.43896,0.034668
4.5352,-7.25,-1.1875,0.3125,-0.031738,1.0107,-0.078125,0.20752,-0.43896,0.034668
4.5391,-7.1875,0.25,0.4375,-0.02002,0.99121,-0.09375,0.20752,-0.43896,0.034668
4.543,-7.125,0.875,0.3125,-0.016113,0.99512,-0.09375,0.20752,-0.43896,0.034668
4.5469,-6.9375,0.6875,0,-0.02002,1.0068,-0.10547,0.20508,-0.43652,0.034668
4.5508,-6.75,-0.0625,0.125,-0.0078125,1.0107,-0.10889,0.20508,-0.43652,0.034668
4.5547,-7.125,-0.25,-0.125,-0.0078125,0.97559,-0.082031,0.20508,-0.43652,0.034668
4.5586,-7.4375,-0.6875,-0.1875,-0.023926,0.99512,-0.085938,0.20996,-0.43164,0.024414
4.5625,-7.625,-0.5625,-0.1875,-0.0039062,0.99121,-0.10547,0.20996,-0.43164,0.024414
4.5664,-7.5,-0.125,-0.375,-0.0039062,0.99121,-0.09375,0.20996,-0.43164,0.024414
4.5703,-6.3125,0.5625,-0.25,-0.02002,0.97168,-0.082031,0.20996,-0.43164,0.024414
4.5742,-5,1.1875,-0.4375,-0.016113,1.0107,-0.070312,0.20752,-0.44141,0.021973
4.5781,-3.75,2.625,-0.375,-0.0039062,0.9873,-0.074219,0.20752,-0.44141,0.021973
4.582,-2.8125,3.0625,-0.625,0.015137,0.9834,-0.097656,0.20752,-0.44141,0.021973
4.5859,-2.75,3.75,-0.6875,-0.0039062,0.99121,-0.082031,0.20996,-0.44385,0.01709
4.5898,-2.1875,4.1875,-0.8125,-0.02002,0.99902,-0.059082,0.20996,-0.44385,0.01709
4.5938,-1.8125,5.5,-0.1875,0,0.9834,-0.055176,0.20996,-0.44385,0.01709
4.5977,-1.75,7.125,-0.0625,-0.0078125,0.97559,-0.043457,0.20996,-0.44385,0.01709
4.6016,-2.5,8.375,0.0625,0.0073242,1.0029,-0.078125,0.20996,-0.44385,0.01709
4.6055,-2.9375,9.3125,0.375,-0.0039062,0.99902,-0.059082,0.20996,-0.44385,0.01709
4.6094,-3.1875,10.375,0.375,-0.0078125,0.99512,-0.047363,0.20996,-0.44385,0.01709
4.6133,-3.25,11.188,0.3125,0.019043,0.9873,-0.089844,0.21484,-0.44629,0.024414
4.6172,-3.625,12.125,0.625,-0.016113,0.97559,-0.070312,0.21484,-0.44629,0.024414
4.6211,-3.125,12.375,0.8125,-0.016113,0.96777,-0.070312,0.21484,-0.44629,0.024414
4.625,-2.1875,12,1.125,-0.02002,0.97949,-0.089844,0.20996,-0.44141,0.024414
4.6289,-1.5,10.938,1.25,-0.012207,0.97559,-0.089844,0.20996,-0.44141,0.024414
4.6328,-0.875,9.5625,1.5,0.003418,0.9834,-0.10547,0.20996,-0.44141,0.024414
4.6367,-0.8125,7.8125,1.4375,-0.02002,0.99121,-0.11279,0.20996,-0.44141,0.024414
4.6406,-1.9375,6.25,1.0625,-0.02002,0.97949,-0.1167,0.20752,-0.42871,0.027344
4.6445,-2.625,4.4375,1.125,-0.012207,1.0107,-0.12061,0.20752,-0.42871,0.027344
4.6484,-3.125,2.875,0.8125,-0.02002,1.0146,-0.11279,0.20752,-0.42871,0.027344
4.6523,-3.1875,1.6875,1.25,-0.031738,1.0068,-0.11279,0.20508,-0.44385,0.021973
4.6562,-2.6875,0.875,1.4375,-0.027832,0.97949,-0.078125,0.20508,-0.44385,0.021973
4.6602,-2.4375,0.6875,1.125,-0.027832,0.97949,-0.082031,0.20508,-0.44385,0.021973
4.6641,-1.9375,0.8125,0.625,-0.075195,1.0029,-0.09375,0.2124,-0.43652,0.032227
4.668,-1.8125,0.5,0.4375,-0.027832,1.0107,-0.085938,0.2124,-0.43652,0.032227
4.6719,-1.9375,-0.1875,0,-0.016113,0.9834,-0.10547,0.2124,-0.43652,0.032227
4.6758,-1.75,-0.9375,-0.6875,-0.012207,1.0029,-0.10889,0.2124,-0.43652,0.032227
4.6797,-1.6875,-1.4375,-1.0625,-0.027832,1.0029,-0.10156,0.21484,-0.43652,0.034668
4.6836,-1.125,-2.1875,-1.4375,-0.016113,1.0225,-0.11279,0.21484,-0.43652,0.034668
4.6875,-1.125,-3.25,-1.5625,0.003418,1.0146,-0.12061,0.21484,-0.43652,0.034668
4.6914,-1.5625,-3.9375,-1.8125,-0.02002,0.99902,-0.089844,0.20508,-0.43896,0.027344
4.6953,-1.4375,-4.625,-1.25,-0.012207,1.0225,-0.097656,0.20508,-0.43896,0.027344
4.6992,-1.6875,-5.25,-1.0625,0.003418,1.0225,-0.10889,0.20508,-0.43896,0.027344
4.7031,-2.125,-5.375,-0.875,-0.027832,1.0068,-0.10547,0.20508,-0.43896,0.027344
4.707,-2.0625,-4.5,-0.375,-0.02002,1.0029,-0.082031,0.20508,-0.43896,0.027344
4.7109,-1.4375,-3.3125,0.125,-0.0078125,0.9873,-0.059082,0.20508,-0.43896,0.027344
4.7148,-0.5,-1.9375,0.0625,-0.02002,0.9873,-0.066895,0.20508,-0.43896,0.027344
4.7188,0.0625,0,0.125,-0.0039062,0.99512,-0.070312,0.20508,-0.43164,0.032227
4.7227,0.0625,1.25,0.25,-0.02002,0.99512,-0.10156,0.20508,-0.43164,0.032227
4.7266,-0.3125,2.3125,0.125,0,0.99902,-0.078125,0.20508,-0.43164,0.032227
4.7305,-1.1875,3.5625,0.125,-0.027832,1.0186,-0.085938,0.20508,-0.42627,0.021973
4.7344,-2.1875,4.5,0,-0.027832,1.0186,-0.085938,0.20508,-0.42627,0.021973
4.7383,-2.6875,5.5,0.3125,-0.016113,0.99902,-0.066895,0.20508,-0.42627,0.021973
4.7422,-2.375,6.375,0.1875,0,0.99121,-0.082031,0.20508,-0.42627,0.021973
4.7461,-2.25,6.875,0.375,0.0073242,0.99512,-0.085938,0.21484,-0.42871,0.01709
4.75,-2.0625,7.3125,0.375,-0.0078125,0.96387,-0.082031,0.21484,-0.42871,0.01709
4.7539,-1.6875,7.6875,0.3125,-0.012207,0.9873,-0.082031,0.21484,-0.42871,0.01709
4.7578,-1.75,8.5625,0.4375,0.003418,0.9873,-0.078125,0.2251,-0.43652,0.021973
4.7617,-2.125,9.1875,0.5625,0.003418,0.99512,-0.059082,0.2251,-0.43652,0.021973
4.7656,-2.875,10.5,0.375,0,0.99512,-0.082031,0.2251,-0.43652,0.021973
4.7695,-3.25,11.25,0.625,-0.0078125,0.97168,-0.085938,0.2251,-0.43652,0.021973
4.7734,-3.4375,11.438,0.5625,-0.0039062,1.0029,-0.09375,0.2251,-0.43652,0.021973
4.7773,-3.1875,11.5,0.3125,-0.0039062,1.0107,-0.09375,0.2251,-0.43652,0.021973
4.7812,-3.5625,11.438,0.125,0.01123,0.9834,-0.078125,0.2251,-0.43652,0.021973
4.7852,-2.75,10.812,0,0,0.99512,-0.10889,0.21777,-0.43408,0.029785
4.7891,-1.8125,9.9375,0,0.019043,0.99902,-0.09375,0.21777,-0.43408,0.029785
4.793,-0.6875,9.6875,-0.375,0,0.97168,-0.082031,0.21777,-0.43408,0.029785
4.7969,-0.125,10.25,-0.5625,0,0.97949,-0.059082,0.20752,-0.43408,0.034668
4.8008,0.0625,11.438,-0.3125,-0.0078125,0.97559,-0.074219,0.20752,-0.43408,0.034668
4.8047,0.5625,12.312,0.3125,0.003418,0.99121,-0.074219,0.20752,-0.43408,0.034668
4.8086,0.875,12.688,0.8125,-0.016113,0.97168,-0.09375,0.20752,-0.43408,0.034668
4.8125,1.5,12.062,0.875,-0.0039062,0.99902,-0.09375,0.20996,-0.45361,0.019531
4.8164,2.4375,10.875,0.8125,0.003418,0.99121,-0.10547,0.20996,-0.45361,0.019531
4.8203,2.875,9.4375,0.9375,-0.016113,1.0068,-0.10889,0.20996,-0.45361,0.019531
4.8242,2.625,8.4375,1.5625,-0.0078125,0.99902,-0.10889,0.2124,-0.43408,0.019531
4.8281,2.375,6.875,2,-0.016113,0.99512,-0.10547,0.2124,-0.43408,0.019531
4.832,2.4375,4.75,2.1875,-0.016113,0.9873,-0.10547,0.2124,-0.43408,0.019531
4.8359,1.6875,2.4375,2.25,0.019043,0.99121,-0.12842,0.20752,-0.43652,0.040039
4.8398,0.5625,0.6875,2,0.0073242,0.99121,-0.097656,0.20752,-0.43652,0.040039
4.8438,0.375,0,2,-0.0039062,1.0146,-0.078125,0.20752,-0.43652,0.040039
4.8477,0.875,-0.1875,2.6875,-0.016113,0.97949,-0.055176,0.20752,-0.43652,0.040039
4.8516,1,-0.0625,2.875,-0.012207,0.9834,-0.074219,0.20508,-0.44873,0.01709
4.8555,0.625,0.375,2.6875,0,0.97949,-0.078125,0.20508,-0.44873,0.01709
4.8594,-0.1875,1.125,2.9375,0.003418,0.9834,-0.078125,0.20508,-0.44873,0.01709
4.8633,-1.1875,1.6875,2.9375,0.019043,0.9873,-0.085938,0.20752,-0.45117,0.019531
4.8672,-1.9375,1.8125,3.25,0.003418,0.97949,-0.074219,0.20752,-0.45117,0.019531
4.8711,-2.625,2.0625,3,-0.016113,1.0107,-0.09375,0.20752,-0.45117,0.019531
4.875,-3.5,1.4375,2.8125,0.019043,1.0225,-0.085938,0.20752,-0.45117,0.019531
4.8789,-4,1.1875,3,-0.012207,1.0107,-0.09375,0.20752,-0.45117,0.019531
4.8828,-4.375,0.1875,2.6875,0.003418,1.0029,-0.09375,0.20752,-0.45117,0.019531
4.8867,-4.25,0.125,2.4375,0.019043,1.0225,-0.089844,0.20752,-0.45117,0.019531
4.8906,-3.6875,-0.25,2,0,1.0068,-0.09375,0.20752,-0.42871,0.027344
4.8945,-3.625,-0.1875,1.25,0,0.99902,-0.089844,0.20752,-0.42871,0.027344
4.8984,-3.25,-0.375,0.875,0.026855,0.9834,-0.089844,0.20752,-0.42871,0.027344
4.9023,-3.125,-0.5625,0.8125,0.0073242,0.97559,-0.082031,0.20996,-0.44629,0.029785
4.9062,-2.25,-1,0.75,0,0.9873,-0.074219,0.20996,-0.44629,0.029785
4.9102,-1.25,-1.3125,0.9375,0.003418,0.97559,-0.078125,0.20996,-0.44629,0.029785
4.9141,-1.125,-1.75,0.6875,-0.0039062,0.99512,-0.097656,0.20996,-0.44629,0.029785
4.918,-1.625,-2.125,0.1875,0.0073242,0.9873,-0.10889,0.20508,-0.44385,0.019531
4.9219,-2.0625,-2.6875,-0.4375,0.019043,0.99512,-0.074219,0.20508,-0.44385,0.019531
4.9258,-2.9375,-2.875,-0.6875,-0.016113,1.0264,-0.10156,0.20508,-0.44385,0.019531
4.9297,-3.1875,-3.125,-0.9375,0.019043,1.0225,-0.082031,0.20996,-0.43896,0.021973
4.9336,-3.5,-3.375,-1.0625,-0.016113,1.0029,-0.09375,0.20996,-0.43896,0.021973
4.9375,-3.375,-3.125,-1.25,0,0.99121,-0.089844,0.20996,-0.43896,0.021973
4.9414,-3.3125,-3.125,-1.25,-0.02002,1.0107,-0.074219,0.19727,-0.43652,0.029785
4.9453,-2.3125,-2.75,-1.1875,-0.016113,1.0029,-0.089844,0.19727,-0.43652,0.029785
4.9492,-1.875,-2.625,-0.8125,-0.016113,0.9873,-0.082031,0.19727,-0.43652,0.029785
4.9531,-1.25,-2.1875,-0.1875,-0.02002,0.97949,-0.089844,0.19727,-0.43652,0.029785
4.957,-1,-2.6875,0.1875,-0.0039062,0.99512,-0.085938,0.20996,-0.43652,0.029785
4.9609,-0.5625,-2.4375,0.875,-0.016113,1.0107,-0.085938,0.20996,-0.43652,0.029785
4.9648,0,-2.625,1.625,-0.023926,0.99121,-0.089844,0.20996,-0.43652,0.029785
4.9688,1.125,-2.375,1.75,-0.0039062,0.99121,-0.062988,0.20508,-0.43896,0.024414
4.9727,1.375,-1.6875,2,-0.0078125,0.99512,-0.062988,0.20508,-0.43896,0.024414
4.9766,1.4375,-1.4375,1.875,-0.0078125,0.99121,-0.062988,0.20508,-0.43896,0.024414
4.9805,1.125,-1,1.75,0.003418,0.99902,-0.066895,0.20508,-0.43896,0.024414
4.9844,0.3125,-1.3125,1.3125,0.003418,0.99902,-0.078125,0.20752,-0.44141,0.021973
4.9883,-0.375,-1.0625,1.375,0.003418,0.99512,-0.082031,0.20752,-0.44141,0.021973
4.9922,-1.1875,-1.0625,1.5,-0.016113,0.97559,-0.074219,0.20752,-0.44141,0.021973
4.9961,-1.625,-1.1875,1.1875,0.01123,1.0029,-0.082031,0.21484,-0.43408,0.024414
5,-1.0625,-1.4375,0.75,0.019043,0.9873,-0.089844,0.21484,-0.43408,0.024414
5.0039,-0.75,-1.6875,0.5625,0,1.0107,-0.078125,0.21484,-0.43408,0.024414
5.0078,-0.375,-1.3125,0.125,0.019043,1.0186,-0.089844,0.20508,-0.44141,0.021973
5.0117,-0.9375,-1.4375,0.125,0,1.0146,-0.070312,0.20508,-0.44141,0.021973
5.0156,-1.5625,-1.25,0.1875,-0.016113,1.0107,-0.062988,0.20508,-0.44141,0.021973
5.0195,-1.375,-0.6875,0,0.003418,0.99121,-0.066895,0.20508,-0.44141,0.021973
5.0234,-1.25,-0.25,0,-0.0039062,1.0186,-0.085938,0.20752,-0.43896,0.027344
5.0273,-0.9375,0.25,-0.5625,0,0.97949,-0.070312,0.20752,-0.43896,0.027344
5.0312,-1.5625,0.9375,-1,-0.012207,0.97559,-0.078125,0.20752,-0.43896,0.027344
5.0352,-1.9375,2.0625,-0.9375,-0.0039062,0.9834,-0.070312,0.20996,-0.44629,0.024414
5.0391,-2.6875,2.8125,-1.0625,-0.023926,1.0029,-0.059082,0.20996,-0.44629,0.024414
5.043,-2.8125,3.375,-0.875,-0.027832,0.9873,-0.082031,0.20996,-0.44629,0.024414
5.0469,-2.6875,3.5625,-0.5625,-0.0039062,0.99512,-0.074219,0.20996,-0.44629,0.024414
5.0508,-2.4375,4,-0.8125,-0.0078125,0.99902,-0.078125,0.20996,-0.44629,0.024414
5.0547,-2,4.1875,-0.5625,-0.012207,0.97168,-0.082031,0.20996,-0.44629,0.024414
5.0586,-1.625,4,-0.3125,-0.0078125,0.99121,-0.085938,0.20996,-0.44629,0.024414
5.0625,-1.5625,3.4375,0.0625,-0.0078125,0.95996,-0.082031,0.20996,-0.43408,0.019531
5.0664,-1.8125,3.25,0.375,-0.0039062,0.99121,-0.078125,0.20996,-0.43408,0.019531
5.0703,-2,2.75,0.625,0.003418,1.0107,-0.09375,0.20996,-0.43408,0.019531
5.0742,-3.25,1.875,1,0.003418,0.9834,-0.078125,0.20508,-0.44141,0.021973
5.0781,-4.25,1.375,1.3125,0.019043,1.0264,-0.085938,0.20508,-0.44141,0.021973
5.082,-4.0625,0.75,1.0625,-0.016113,0.9873,-0.09375,0.20508,-0.44141,0.021973
5.0859,-3.5,-0.375,1.5,0.01123,0.99121,-0.082031,0.20508,-0.44141,0.021973
5.0898,-2.5,-1.1875,1.1875,-0.023926,0.99512,-0.09375,0.2124,-0.43164,0.024414
5.0938,-1.5,-1.9375,1.125,-0.02002,0.9873,-0.085938,0.2124,-0.43164,0.024414
5.0977,-0.8125,-2.875,1.75,-0.016113,0.9834,-0.082031,0.2124,-0.43164,0.024414
5.1016,-0.3125,-3.125,1.0625,0.01123,0.99902,-0.085938,0.20996,-0.44141,0.032227
5.1055,-0.375,-3.125,1.0625,-0.0039062,1.0225,-0.089844,0.20996,-0.44141,0.032227
5.1094,-0.8125,-3.4375,1.0625,0,1.0186,-0.089844,0.20996,-0.44141,0.032227
5.1133,-1.4375,-3.5625,0.75,0.003418,1.0146,-0.09375,0.20996,-0.43652,0.027344
5.1172,-2.25,-4.1875,0.5,0.0073242,1.0107,-0.089844,0.20996,-0.43652,0.027344
5.1211,-2.1875,-4.5,0.25,-0.0039062,0.99121,-0.097656,0.20996,-0.43652,0.027344
5.125,-2.4375,-5.0625,0.25,0,0.99121,-0.09375,0.20996,-0.43652,0.027344
5.1289,-1.5625,-5.375,0.25,-0.0078125,1.0029,-0.055176,0.19971,-0.44629,0.032227
5.1328,-1.1875,-5.0625,0.375,-0.012207,0.9834,-0.066895,0.19971,-0.44629,0.032227
5.1367,-0.8125,-5.125,0.375,0.003418,1.0186,-0.082031,0.19971,-0.44629,0.032227
5.1406,-0.875,-4.875,0.4375,-0.0039062,1.0186,-0.082031,0.20996,-0.43896,0.01709
5.1445,-1.0625,-4.4375,0.5,0,1.0107,-0.062988,0.20996,-0.43896,0.01709
5.1484,-1.1875,-3.25,0.5625,0.0073242,1.0107,-0.074219,0.20996,-0.43896,0.01709
5.1523,-1.5625,-1.9375,0.5,0.026855,1.0186,-0.055176,0.20996,-0.43896,0.01709
5.1562,-2.125,-0.4375,0.5,-0.0078125,1.0264,-0.035645,0.20996,-0.43896,0.01709
5.1602,-2.5625,1.1875,0.5,-0.0039062,0.99121,-0.059082,0.20996,-0.43896,0.01709
5.1641,-3.375,2.375,0.125,0,0.9873,-0.070312,0.20996,-0.43896,0.01709
5.168,-3.6875,2.9375,0.125,-0.023926,1.0107,-0.062988,0.19971,-0.43164,0.019531
5.1719,-3.75,3.0625,0.0625,-0.0039062,1.0186,-0.082031,0.19971,-0.43164,0.019531
5.1758,-3.75,2.9375,0,-0.023926,0.9873,-0.055176,0.19971,-0.43164,0.019531
5.1797,-3.5,2.625,-0.125,0,1.0029,-0.085938,0.20752,-0.43408,0.014648
5.1836,-3.375,1.8125,0,0.003418,1.0029,-0.097656,0.20752,-0.43408,0.014648
5.1875,-3.125,1.0625,0.3125,-0.0078125,0.99121,-0.10156,0.20752,-0.43408,0.014648
5.1914,-2.8125,-0.0625,0.5,0.003418,1.0107,-0.082031,0.20752,-0.43408,0.014648
5.1953,-1.8125,-1.0625,0.5625,0.019043,1.0264,-0.10156,0.20996,-0.43896,0.021973
5.1992,-1.625,-1.875,0.4375,-0.0078125,0.99121,-0.09375,0.20996,-0.43896,0.021973
5.2031,-0.9375,-2.25,0.75,-0.016113,1.0107,-0.09375,0.20996,-0.43896,0.021973
5.207,-0.75,-2.6875,0.8125,0.01123,0.9834,-0.085938,0.2124,-0.42871,0.021973
5.2109,-0.4375,-2.8125,0.75,-0.012207,1.0107,-0.070312,0.2124,-0.42871,0.021973
5.2148,-0.1875,-2.75,0.5625,-0.0078125,1.0107,-0.066895,0.2124,-0.42871,0.021973
5.2188,-0.5625,-2.6875,0.4375,-0.0078125,1.0107,-0.055176,0.2124,-0.42871,0.021973
5.2227,-0.625,-2.5,0.375,0.019043,0.99512,-0.062988,0.2124,-0.42871,0.021973
5.2266,-1,-2.3125,0,0.019043,1.0186,-0.074219,0.2124,-0.42871,0.021973
5.2305,-1.875,-2.8125,-0.125,-0.012207,0.99902,-0.097656,0.2124,-0.42871,0.021973
5.2344,-2.875,-3.6875,-0.375,-0.012207,1.0146,-0.09375,0.20996,-0.45117,0.01709
5.2383,-3.4375,-4.1875,-0.375,-0.0078125,0.99512,-0.089844,0.20996,-0.45117,0.01709
5.2422,-3.25,-4.4375,0.125,0.003418,0.99512,-0.085938,0.20996,-0.45117,0.01709
5.2461,-3.25,-5.0625,0.0625,-0.0078125,1.0068,-0.062988,0.19482,-0.44629,0.029785
5.25,-2.75,-4.9375,0.25,-0.02002,0.9834,-0.05127,0.19482,-0.44629,0.029785
5.2539,-2.5,-5,0.6875,-0.012207,0.9873,-0.070312,0.19482,-0.44629,0.029785
5.2578,-1.875,-5.125,0.9375,-0.0078125,0.9834,-0.062988,0.19482,-0.44629,0.029785
5.2617,-1.5,-5.875,0.6875,-0.012207,0.9873,-0.089844,0.20752,-0.44629,0.021973
5.2656,-1.25,-6.5625,0.75,-0.016113,1.0146,-0.062988,0.20752,-0.44629,0.021973
5.2695,-1.3125,-6.6875,0.75,-0.016113,1.0146,-0.062988,0.20752,-0.44629,0.021973
5.2734,-1.4375,-5.875,0.5625,0.0073242,1.0107,-0.074219,0.20996,-0.43408,0.01709
5.2773,-1.25,-5.3125,0.75,-0.02002,1.0146,-0.066895,0.20996,-0.43408,0.01709
5.2812,-1.9375,-4.8125,0.75,-0.0039062,1.0107,-0.070312,0.20996,-0.43408,0.01709
5.2852,-2.375,-4.25,0.625,0.0073242,0.99902,-0.097656,0.20215,-0.43652,0.021973
5.2891,-2.625,-3.5,1.0625,0.0073242,0.99121,-0.062988,0.20215,-0.43652,0.021973
5.293,-2.6875,-3.0625,1.25,0.015137,0.99512,-0.066895,0.20215,-0.43652,0.021973
5.2969,-2.625,-2.375,1.25,0.0073242,0.97949,-0.062988,0.20215,-0.43652,0.021973
5.3008,-2.4375,-2,1.4375,-0.0039062,0.99512,-0.09375,0.20996,-0.43408,0.024414
5.3047,-3,-1.75,1.625,0.022949,0.99121,-0.074219,0.20996,-0.43408,0.024414
5.3086,-3.3125,-1.8125,1.5625,0.015137,0.97949,-0.085938,0.20996,-0.43408,0.024414
5.3125,-3.1875,-2.125,1.8125,0.019043,0.9834,-0.078125,0.20752,-0.43896,0.011719
5.3164,-3.1875,-2.75,1.875,0.022949,1.0107,-0.074219,0.20752,-0.43896,0.011719
5.3203,-3.25,-2.8125,1.9375,0.015137,0.99121,-0.059082,0.20752,-0.43896,0.011719
5.3242,-3.1875,-2.5,2.1875,0.022949,1.0146,-0.066895,0.20752,-0.43896,0.011719
5.3281,-4.0625,-2.375,2.4375,0.019043,0.9834,-0.066895,0.20752,-0.43896,0.011719
5.332,-4.375,-1.875,2.6875,0.003418,0.9834,-0.055176,0.20752,-0.43896,0.011719
5.3359,-4.25,-1.4375,2.8125,0.022949,0.9873,-0.047363,0.20752,-0.43896,0.011719
5.3398,-3.875,-1.5,2.625,0.0073242,0.97168,-0.074219,0.20996,-0.43408,0.01709
5.3438,-3.625,-1.0625,2.75,0.003418,0.9834,-0.070312,0.20996,-0.43408,0.01709
5.3477,-3.9375,-0.8125,2.1875,0,0.9873,-0.070312,0.20996,-0.43408,0.01709
5.3516,-4.1875,-1,2.1875,0.019043,0.99121,-0.043457,0.20752,-0.44385,0.011719
5.3555,-4.0625,-0.9375,2.1875,0.019043,0.9834,-0.047363,0.20752,-0.44385,0.011719
5.3594,-3.4375,-0.6875,1.9375,0.003418,1.0107,-0.055176,0.20752,-0.44385,0.011719
5.3633,-3.25,-0.375,1.6875,-0.0039062,0.99512,-0.055176,0.20752,-0.44385,0.011719
5.3672,-2.8125,0.625,1.4375,-0.0078125,0.9873,-0.055176,0.20996,-0.44385,0.014648
5.3711,-2.125,1.8125,1.25,-0.02002,1.0029,-0.035645,0.20996,-0.44385,0.014648
5.375,-1.625,2.625,1.25,0.015137,0.99512,-0.043457,0.20996,-0.44385,0.014648
5.3789,-0.8125,3.125,1.0625,-0.016113,0.97168,-0.062988,0.21484,-0.43652,0.0092773
5.3828,-0.875,3.5,0.625,0.019043,0.97559,-0.074219,0.21484,-0.43652,0.0092773
5.3867,-1.1875,4.0625,0.625,0.019043,0.9873,-0.059082,0.21484,-0.43652,0.0092773
5.3906,-1.5,4.875,1,-0.0039062,1.0107,-0.047363,0.21484,-0.43652,0.0092773
5.3945,-1.5625,5.3125,1.25,-0.0039062,0.99902,-0.062988,0.21484,-0.43652,0.0092773
5.3984,-1.4375,5.3125,0.875,0.003418,0.99902,-0.078125,0.21484,-0.43652,0.0092773
5.4023,-1.4375,5.125,1,0.003418,1.0107,-0.085938,0.21484,-0.43652,0.0092773
5.4062,-1.1875,3.875,0.9375,0.003418,0.95996,-0.10547,0.19971,-0.43652,0.0068359
5.4102,-1,2.9375,1,0.019043,1.0107,-0.066895,0.19971,-0.43652,0.0068359
5.4141,-0.25,1.25,0.6875,0.022949,1.0107,-0.074219,0.19971,-0.43652,0.0068359
5.418,0,-0.0625,1.1875,0.019043,0.9834,-0.085938,0.20508,-0.44385,0.0068359
5.4219,0.0625,-0.3125,1.1875,0.022949,0.99121,-0.055176,0.20508,-0.44385,0.0068359
5.4258,-0.25,-0.4375,1.3125,0.003418,1.0107,-0.074219,0.20508,-0.44385,0.0068359
5.4297,-1.0625,0.3125,1.1875,0.003418,0.99121,-0.047363,0.20508,-0.44385,0.0068359
5.4336,-1.6875,1.25,1.625,0.0073242,0.99902,-0.066895,0.20215,-0.44141,0.019531
5.4375,-3,1.9375,1.625,-0.016113,0.99512,-0.070312,0.20215,-0.44141,0.019531
5.4414,-4.3125,2.625,1.9375,0.015137,0.9873,-0.047363,0.20215,-0.44141,0.019531
5.4453,-5.6875,3,1.8125,-0.0039062,0.99121,-0.062988,0.20215,-0.43896,0.01709
5.4492,-6.375,2.375,2.5625,0.019043,0.99902,-0.059082,0.20215,-0.43896,0.01709
5.4531,-7.125,1.75,2.875,0.0073242,0.99512,-0.062988,0.20215,-0.43896,0.01709
5.457,-7.5,1.3125,2.9375,0.019043,0.99121,-0.039551,0.2124,-0.44629,0.0068359
5.4609,-7.5625,1.0625,3.0625,-0.0078125,0.97949,-0.047363,0.2124,-0.44629,0.0068359
5.4648,-7.4375,0.625,3,0.015137,0.99121,-0.02832,0.2124,-0.44629,0.0068359
5.4688,-7.1875,1.125,2.6875,0,0.99121,-0.047363,0.2124,-0.44629,0.0068359
5.4727,-7.0625,2.375,2.6875,-0.016113,0.9873,-0.047363,0.2124,-0.43652,0.021973
5.4766,-7.6875,4,2.6875,-0.0039062,1.0107,-0.031738,0.2124,-0.43652,0.021973
5.4805,-7.3125,3.75,2.4375,0.003418,0.9873,-0.039551,0.2124,-0.43652,0.021973
5.4844,-8.5625,3.75,1.5,0.0073242,1.0107,-0.047363,0.20752,-0.44629,0.014648
5.4883,-10.438,3.3125,0.875,-0.012207,1.0107,-0.05127,0.20752,-0.44629,0.014648
5.4922,-11.25,3.25,0.9375,-0.0078125,1.0107,-0.047363,0.20752,-0.44629,0.014648
5.4961,-11.75,2.8125,0.75,0.003418,0.97949,-0.059082,0.20752,-0.44629,0.014648
5.5,-12.438,2.3125,0.8125,-0.0078125,0.99902,-0.085938,0.20752,-0.44629,0.014648
5.5039,-13.5,1.1875,0.25,0.035156,1.0107,-0.078125,0.20752,-0.44629,0.014648
5.5078,-14.75,-0.25,0.1875,0.003418,1.0146,-0.089844,0.20752,-0.44629,0.014648
5.5117,-16.5,-1.6875,-0.0625,0.01123,0.9834,-0.082031,0.20996,-0.43408,0.019531
5.5156,-17.375,-2.875,0,-0.012207,1.0532,-0.066895,0.20996,-0.43408,0.019531
5.5195,-17.938,-3.4375,-0.0625,-0.016113,1.0342,-0.059082,0.20996,-0.43408,0.019531
5.5234,-19.625,-4.125,-0.0625,0.0073242,1.0225,-0.070312,0.20752,-0.43896,0.0092773
5.5273,-21.875,-4.375,-0.125,0.015137,1.0029,-0.059082,0.20752,-0.43896,0.0092773
5.5312,-24.312,-4.3125,-0.5,-0.0039062,1.0342,-0.062988,0.20752,-0.43896,0.0092773
5.5352,-25.625,-4.5,-0.5625,0.003418,1.0264,-0.062988,0.20752,-0.43896,0.0092773
5.5391,-27.312,-4.25,-0.875,-0.0039062,1.0107,-0.062988,0.20752,-0.44141,0.0043945
5.543,-28.125,-3.5,-1.125,0.01123,1.0225,-0.043457,0.20752,-0.44141,0.0043945
5.5469,-29.438,-2.625,-1.625,-0.0039062,1.0225,-0.020508,0.20752,-0.44141,0.0043945
5.5508,-29.812,-1.375,-2,0.003418,1.0068,-0.020508,0.20996,-0.43896,0.0019531
5.5547,-30.188,-0.1875,-2.625,0.003418,1.0029,-0.024414,0.20996,-0.43896,0.0019531
5.5586,-30.5,0.9375,-2.9375,-0.016113,0.99512,-0.02832,0.20996,-0.43896,0.0019531
5.5625,-30.375,2.25,-2.9375,0,1.0068,-0.0087891,0.20996,-0.43896,0.0019531
5.5664,-30.688,3.5625,-2.75,-0.0039062,0.99512,-0.0087891,0.20996,-0.43896,0.0019531
5.5703,-31.375,4.6875,-3,0.003418,1.0107,-0.02832,0.20996,-0.43896,0.0019531
5.5742,-32.812,5.4375,-3.625,0.01123,1.0146,-0.020508,0.20996,-0.43896,0.0019531
5.5781,-34.312,5.8125,-3.8125,0.0073242,1.0342,-0.016602,0.19971,-0.44629,-0.0078125
5.582,-35.938,6.25,-4.125,0,1.0068,0.013672,0.19971,-0.44629,-0.0078125
5.5859,-37.312,6.4375,-4.5625,0.015137,1.0146,-0.012695,0.19971,-0.44629,-0.0078125
5.5898,-38.062,6.875,-5.375,0.019043,1.0186,-0.02832,0.20215,-0.44629,-0.0078125
5.5938,-38.438,6.4375,-6.1875,-0.016113,1.0225,-0.024414,0.20215,-0.44629,-0.0078125
5.5977,-39,6.8125,-6.0625,0.015137,1.0415,-0.00097656,0.20215,-0.44629,-0.0078125
5.6016,-39.625,7.125,-6.0625,0,1.0454,-0.020508,0.20215,-0.44629,-0.0078125
5.6055,-39.938,7.8125,-6.1875,-0.0078125,1.0264,-0.02832,0.19971,-0.43408,-0.0078125
5.6094,-40.312,8.875,-5.5625,0.003418,1.0342,0.013672,0.19971,-0.43408,-0.0078125
5.6133,-40.875,10.438,-4.875,-0.0039062,1.0107,0.025391,0.19971,-0.43408,-0.0078125
5.6172,-42.125,12.625,-4.0625,0.003418,1.0186,0.017578,0.19238,-0.44385,-0.0078125
5.6211,-43.062,14.75,-3.1875,0.019043,1.0303,0.029297,0.19238,-0.44385,-0.0078125
5.625,-44.375,16.625,-2.5625,0,1.0264,0.0063477,0.19238,-0.44385,-0.0078125
5.6289,-46.188,18.5,-2.75,0.022949,1.0186,0.017578,0.20752,-0.44385,-0.012695
5.6328,-49.375,20.375,-2.5625,0.0073242,1.0146,0.021484,0.20752,-0.44385,-0.012695
5.6367,-52.375,21.312,-2.8125,-0.016113,1.0146,0.017578,0.20752,-0.44385,-0.012695
5.6406,-56,21.812,-2.1875,0.022949,1.0146,0.017578,0.20752,-0.44385,-0.012695
5.6445,-59.188,20.312,-2.375,0.003418,1.0107,-0.020508,0.20752,-0.44873,-0.015625
5.6484,-61.812,17.438,-2.1875,0.026855,1.0107,-0.016602,0.20752,-0.44873,-0.015625
5.6523,-64,14.125,-2.375,0.022949,1.0068,-0.031738,0.20752,-0.44873,-0.015625
5.6562,-66.5,10.75,-2.8125,0.030762,1.0342,-0.031738,0.20215,-0.43164,-0.02832
5.6602,-68.062,7.8125,-2.4375,0.026855,1.0264,-0.02832,0.20215,-0.43164,-0.02832
5.6641,-69.375,5.125,-1.9375,0.030762,1.0186,-0.016602,0.20215,-0.43164,-0.02832
5.668,-72,2.5625,-6,0.046875,0.99512,-0.039551,0.20215,-0.43164,-0.02832
5.6719,-77.125,2.6875,-10.125,-0.039551,0.97949,-0.043457,0.20215,-0.43164,-0.02832
5.6758,-81.062,10,-13.5,0.054688,1.0146,-0.02832,0.20215,-0.43164,-0.02832
5.6797,-82.25,1.25,-14.312,0.022949,0.9834,0.029297,0.20215,-0.43164,-0.02832
5.6836,-78.125,-5.0625,-12.562,0.019043,0.97949,0.060059,0.20508,-0.43896,-0.043457
5.6875,-77.25,-7.4375,-12.625,0.0073242,0.95996,0.04834,0.20508,-0.43896,-0.043457
5.6914,-79.312,-8.1875,-13.062,0.08252,0.97559,0.029297,0.20508,-0.43896,-0.043457
5.6953,-85.5,-6.4375,-14.125,0.050781,0.9209,-0.00097656,0.20752,-0.44629,-0.045898
5.6992,-89.188,-6.6875,-12.25,0.066406,0.95605,0.044922,0.20752,-0.44629,-0.045898
5.7031,-90.438,-10.688,-9.5625,0.0625,0.94434,0.052246,0.20752,-0.44629,-0.045898
5.707,-90.875,-15.438,-7.375,0.022949,0.94824,0.063965,0.20752,-0.44629,-0.045898
5.7109,-92.188,-16.625,-6,0.066406,0.97559,0.063965,0.20752,-0.43408,-0.050781
5.7148,-95.312,-14.812,-4.9375,-0.035645,0.97559,0.060059,0.20752,-0.43408,-0.050781
5.7188,-96.125,-15.938,-1.8125,0.046875,1.0303,0.1333,0.20752,-0.43408,-0.050781
5.7227,-99.375,-14.188,-4.125,-0.016113,1.0454,0.13721,0.21484,-0.43408,-0.071289
5.7266,-102.38,-10.188,-1.4375,-0.055664,1.0454,0.15674,0.21484,-0.43408,-0.071289
5.7305,-100.81,-12.188,1.1875,-0.055664,1.0342,0.18359,0.21484,-0.43408,-0.071289
5.7344,-102.69,-11.375,1.5,-0.031738,1.0303,0.17969,0.21484,-0.43408,-0.071289
5.7383,-106.06,-7.1875,1.0625,-0.063477,1.0264,0.19922,0.21484,-0.43408,-0.071289
5.7422,-103.25,-6,2.8125,-0.047363,1.0381,0.21436,0.21484,-0.43408,-0.071289
5.7461,-96.062,-10.375,4.125,-0.043457,1.0107,0.23389,0.21484,-0.43408,-0.071289
5.75,-90.312,-10.625,4.8125,-0.063477,0.99121,0.24902,0.19482,-0.42871,-0.09668
5.7539,-86.625,-7.4375,5.1875,-0.039551,0.9834,0.25293,0.19482,-0.42871,-0.09668
5.7578,-82.938,-4.4375,5.0625,-0.047363,0.97559,0.22607,0.19482,-0.42871,-0.09668
5.7617,-81.188,-3.1875,4.9375,-0.027832,0.97949,0.22998,0.20508,-0.42871,-0.091309
5.7656,-79.5,-2.6875,5.25,-0.027832,0.96777,0.21436,0.20508,-0.42871,-0.091309
5.7695,-78.938,-1.25,5.375,-0.02002,0.97559,0.21826,0.20508,-0.42871,-0.091309
5.7734,-78.312,0.5625,5.1875,-0.031738,0.95605,0.24512,0.20508,-0.42871,-0.091309
5.7773,-78.188,1.875,5.0625,0,0.97949,0.19922,0.20996,-0.42627,-0.10156
5.7812,-77.812,2.375,4.8125,-0.0039062,0.95605,0.19922,0.20996,-0.42627,-0.10156
5.7852,-75.875,1.125,4.6875,-0.0039062,0.94434,0.19141,0.20996,-0.42627,-0.10156
5.7891,-74.312,-1.0625,5.3125,0.003418,0.95215,0.21436,0.20752,-0.42871,-0.12451
5.793,-73.062,-3.625,5.6875,-0.0078125,0.93652,0.21436,0.20752,-0.42871,-0.12451
5.7969,-72.312,-6.5,6.8125,0,0.94824,0.19531,0.20752,-0.42871,-0.12451
5.8008,-72.125,-8.5625,7.8125,0.003418,0.94434,0.21826,0.20996,-0.42627,-0.12207
5.8047,-72.875,-10.625,8.875,-0.02002,0.96387,0.17578,0.20996,-0.42627,-0.12207
5.8086,-75,-11.812,10.375,-0.0039062,0.9873,0.21436,0.20996,-0.42627,-0.12207
5.8125,-77.125,-12.75,11.188,-0.02002,0.99902,0.21045,0.20996,-0.42627,-0.12207
5.8164,-80.5,-13.688,12.438,-0.016113,1.0029,0.22607,0.20752,-0.42627,-0.13965
5.8203,-82.312,-13.5,13.25,-0.012207,1.0146,0.23779,0.20752,-0.42627,-0.13965
5.8242,-84.5,-12.562,14.312,-0.039551,1.0454,0.23779,0.20752,-0.42627,-0.13965
5.8281,-87.875,-10.75,15.188,-0.035645,1.0264,0.25684,0.19727,-0.42627,-0.14209
5.832,-91.562,-9.5,15.625,-0.023926,1.0186,0.23779,0.19727,-0.42627,-0.14209
5.8359,-94.812,-9.1875,14.875,-0.016113,0.99902,0.26074,0.19727,-0.42627,-0.14209
5.8398,-98.688,-9.3125,14.75,0.003418,1.0186,0.26855,0.19727,-0.42627,-0.14209
5.8438,-101.81,-7.5625,14.062,-0.012207,0.99512,0.27637,0.19727,-0.42627,-0.14209
5.8477,-105.81,-5.8125,13.938,0.0073242,0.9873,0.30322,0.19727,-0.42627,-0.14209
5.8516,-108.88,-2,13.25,-0.016113,0.97168,0.30713,0.19727,-0.42627,-0.14209
5.8555,-112.19,-0.75,13.562,0.003418,0.96387,0.2915,0.20215,-0.41895,-0.15967
5.8594,-116.06,1.5625,13.125,0.003418,0.97168,0.32227,0.20215,-0.41895,-0.15967
5.8633,-119.38,2.5625,12.312,0.0073242,0.95605,0.30713,0.20215,-0.41895,-0.15967
5.8672,-123.75,3.3125,10.875,-0.0078125,0.95605,0.2876,0.19482,-0.41406,-0.16748
5.8711,-128.81,3.4375,10.125,0,0.96387,0.30713,0.19482,-0.41406,-0.16748
5.875,-134.94,4,10.375,0,0.95215,0.32227,0.19482,-0.41406,-0.16748
5.8789,-138.56,5,10.438,0.026855,0.94434,0.32227,0.19482,-0.41406,-0.16748
5.8828,-145.44,5.8125,12.062,0.019043,0.96777,0.3418,0.19482,-0.41162,-0.18262
